onset	duration	sample	trial_type	response_time	stim_file	item_name	serialpos	list	test	answer	experiment	session	subject
0.0	23.982	385304	SESS_START	n/a	n/a	n/a	-999	-999	[0, 0, 0]	n/a	FR1	1	R1070T
23.982	10.0	409285	COUNTDOWN_START	n/a	n/a	n/a	-999	-999	[0, 0, 0]	n/a	FR1	1	R1070T
34.41	3.574	419713	COUNTDOWN_END	n/a	n/a	n/a	-999	-999	[0, 0, 0]	n/a	FR1	1	R1070T
37.984	1.6	423286	PRACTICE_WORD	n/a	n/a	LENGUA	1	-1	[0, 0, 0]	n/a	FR1	1	R1070T
40.384	1.6	425686	PRACTICE_WORD	n/a	n/a	HAZ	2	-1	[0, 0, 0]	n/a	FR1	1	R1070T
42.752	1.6	428054	PRACTICE_WORD	n/a	n/a	RELOJ	3	-1	[0, 0, 0]	n/a	FR1	1	R1070T
45.168	1.6	430470	PRACTICE_WORD	n/a	n/a	ANILLO	4	-1	[0, 0, 0]	n/a	FR1	1	R1070T
47.787	1.6	433089	PRACTICE_WORD	n/a	n/a	ALGODON	5	-1	[0, 0, 0]	n/a	FR1	1	R1070T
50.169	1.6	435471	PRACTICE_WORD	n/a	n/a	PECHO	6	-1	[0, 0, 0]	n/a	FR1	1	R1070T
52.671	1.6	437973	PRACTICE_WORD	n/a	n/a	VAGON	7	-1	[0, 0, 0]	n/a	FR1	1	R1070T
55.17	1.6	440471	PRACTICE_WORD	n/a	n/a	RINOCERONTE	8	-1	[0, 0, 0]	n/a	FR1	1	R1070T
57.688	1.6	442989	PRACTICE_WORD	n/a	n/a	INUNDACION	9	-1	[0, 0, 0]	n/a	FR1	1	R1070T
60.105	1.6	445406	PRACTICE_WORD	n/a	n/a	ATICO	10	-1	[0, 0, 0]	n/a	FR1	1	R1070T
62.656	1.6	447957	PRACTICE_WORD	n/a	n/a	HIERRO	11	-1	[0, 0, 0]	n/a	FR1	1	R1070T
65.155	1.6	450456	PRACTICE_WORD	n/a	n/a	CAMELLO	12	-1	[0, 0, 0]	n/a	FR1	1	R1070T
66.756	0.001	452057	PRACTICE_DISTRACT_START	n/a	n/a	n/a	-999	-1	[0, 0, 0]	n/a	FR1	1	R1070T
66.757	0.016	452058	START	n/a	n/a	n/a	-999	-1	[-999, -999, -999]	n/a	FR1	1	R1070T
66.773	6.885	452074	PROB	6.851	n/a	n/a	-999	-1	[3, 2, 2]	7.0	FR1	1	R1070T
73.658	4.267	458959	PROB	4.246	n/a	n/a	-999	-1	[1, 4, 3]	8.0	FR1	1	R1070T
77.925	5.517	463225	PROB	5.482	n/a	n/a	-999	-1	[4, 5, 4]	13.0	FR1	1	R1070T
83.442	4.478	468742	PROB	4.478	n/a	n/a	-999	-1	[1, 3, 4]	8.0	FR1	1	R1070T
87.92	0.007	473220	STOP	n/a	n/a	n/a	-999	-1	[-999, -999, -999]	n/a	FR1	1	R1070T
87.927	0.618	473227	PRACTICE_DISTRACT_END	n/a	n/a	n/a	-999	-1	[0, 0, 0]	n/a	FR1	1	R1070T
88.545	30.516	473845	PRACTICE_REC_START	n/a	n/a	n/a	-999	-1	[0, 0, 0]	n/a	FR1	1	R1070T
119.061	165.168	504359	PRACTICE_REC_END	n/a	n/a	n/a	-999	-1	[0, 0, 0]	n/a	FR1	1	R1070T
284.229	0.0	669519	TRIAL	n/a	n/a	n/a	-999	1	[0, 0, 0]	n/a	FR1	1	R1070T
284.229	10.0	669519	COUNTDOWN_START	n/a	n/a	n/a	-999	1	[0, 0, 0]	n/a	FR1	1	R1070T
294.657	0.008	679947	COUNTDOWN_END	n/a	n/a	n/a	-999	1	[0, 0, 0]	n/a	FR1	1	R1070T
294.665	1.6	679955	ORIENT	n/a	n/a	n/a	-999	1	[0, 0, 0]	n/a	FR1	1	R1070T
297.164	1.6	682454	WORD	n/a	wordpools/wordpool_SP.txt	TERRENO	1	1	[0, 0, 0]	n/a	FR1	1	R1070T
299.716	1.6	685005	WORD	n/a	wordpools/wordpool_SP.txt	LAGO	2	1	[0, 0, 0]	n/a	FR1	1	R1070T
302.249	1.6	687538	WORD	n/a	wordpools/wordpool_SP.txt	GRANJA	3	1	[0, 0, 0]	n/a	FR1	1	R1070T
304.65	1.6	689939	WORD	n/a	wordpools/wordpool_SP.txt	JUGUETE	4	1	[0, 0, 0]	n/a	FR1	1	R1070T
307.05	1.6	692339	WORD	n/a	wordpools/wordpool_SP.txt	ZOOLOGICO	5	1	[0, 0, 0]	n/a	FR1	1	R1070T
309.433	1.6	694722	WORD	n/a	wordpools/wordpool_SP.txt	TE	6	1	[0, 0, 0]	n/a	FR1	1	R1070T
311.935	1.6	697224	WORD	n/a	wordpools/wordpool_SP.txt	CORAZON	7	1	[0, 0, 0]	n/a	FR1	1	R1070T
314.384	1.6	699673	WORD	n/a	wordpools/wordpool_SP.txt	GATO	8	1	[0, 0, 0]	n/a	FR1	1	R1070T
316.936	1.6	702225	WORD	n/a	wordpools/wordpool_SP.txt	PUENTE	9	1	[0, 0, 0]	n/a	FR1	1	R1070T
319.435	1.6	704724	WORD	n/a	wordpools/wordpool_SP.txt	CAMARON	10	1	[0, 0, 0]	n/a	FR1	1	R1070T
321.87	1.6	707158	WORD	n/a	wordpools/wordpool_SP.txt	FUERTE	11	1	[0, 0, 0]	n/a	FR1	1	R1070T
324.353	1.6	709641	WORD	n/a	wordpools/wordpool_SP.txt	ORO	12	1	[0, 0, 0]	n/a	FR1	1	R1070T
325.971	0.001	711259	DISTRACT_START	n/a	n/a	n/a	-999	1	[0, 0, 0]	n/a	FR1	1	R1070T
325.972	0.015	711260	START	n/a	n/a	n/a	-999	1	[-999, -999, -999]	n/a	FR1	1	R1070T
325.987	8.401	711275	PROB	8.372	n/a	n/a	-999	1	[1, 4, 7]	12.0	FR1	1	R1070T
334.388	4.385	719676	PROB	4.356	n/a	n/a	-999	1	[8, 5, 2]	15.0	FR1	1	R1070T
338.773	5.868	724061	PROB	5.835	n/a	n/a	-999	1	[1, 4, 7]	12.0	FR1	1	R1070T
344.641	8.343	729928	PROB	8.343	n/a	n/a	-999	1	[7, 9, 2]	18.0	FR1	1	R1070T
352.984	0.008	738271	STOP	n/a	n/a	n/a	-999	1	[-999, -999, -999]	n/a	FR1	1	R1070T
352.992	1.204	738279	DISTRACT_END	n/a	n/a	n/a	-999	1	[0, 0, 0]	n/a	FR1	1	R1070T
354.196	6.01	739483	REC_START	n/a	n/a	n/a	-999	1	[0, 0, 0]	n/a	FR1	1	R1070T
360.206	8.6	745493	REC_WORD	6.01	n/a	TERRENO	1	1	[0, 0, 0]	n/a	FR1	1	R1070T
368.806	10.595	754092	REC_WORD	14.61	n/a	GATO	8	1	[0, 0, 0]	n/a	FR1	1	R1070T
379.401	4.801	764687	REC_WORD	25.205	n/a	PATIO	-999	1	[0, 0, 0]	n/a	FR1	1	R1070T
384.202	3.78	769487	REC_END	n/a	n/a	n/a	-999	1	[0, 0, 0]	n/a	FR1	1	R1070T
387.982	0.0	773267	TRIAL	n/a	n/a	n/a	-999	2	[0, 0, 0]	n/a	FR1	1	R1070T
387.982	10.0	773267	COUNTDOWN_START	n/a	n/a	n/a	-999	2	[0, 0, 0]	n/a	FR1	1	R1070T
398.41	0.006	783695	COUNTDOWN_END	n/a	n/a	n/a	-999	2	[0, 0, 0]	n/a	FR1	1	R1070T
398.416	1.6	783701	ORIENT	n/a	n/a	n/a	-999	2	[0, 0, 0]	n/a	FR1	1	R1070T
400.784	1.6	786069	WORD	n/a	wordpools/wordpool_SP.txt	ROBLE	1	2	[0, 0, 0]	n/a	FR1	1	R1070T
403.167	1.6	788451	WORD	n/a	wordpools/wordpool_SP.txt	COPA	2	2	[0, 0, 0]	n/a	FR1	1	R1070T
405.735	1.6	791019	WORD	n/a	wordpools/wordpool_SP.txt	TAZA	3	2	[0, 0, 0]	n/a	FR1	1	R1070T
408.285	1.6	793569	WORD	n/a	wordpools/wordpool_SP.txt	CONCHA	4	2	[0, 0, 0]	n/a	FR1	1	R1070T
410.686	1.6	795970	WORD	n/a	wordpools/wordpool_SP.txt	PASTA	5	2	[0, 0, 0]	n/a	FR1	1	R1070T
413.269	1.6	798553	WORD	n/a	wordpools/wordpool_SP.txt	HUEVO	6	2	[0, 0, 0]	n/a	FR1	1	R1070T
415.67	1.6	800954	WORD	n/a	wordpools/wordpool_SP.txt	VARITA	7	2	[0, 0, 0]	n/a	FR1	1	R1070T
418.087	1.6	803371	WORD	n/a	wordpools/wordpool_SP.txt	CUCHARA	8	2	[0, 0, 0]	n/a	FR1	1	R1070T
420.638	1.6	805922	WORD	n/a	wordpools/wordpool_SP.txt	GALLINA	9	2	[0, 0, 0]	n/a	FR1	1	R1070T
423.204	1.6	808487	WORD	n/a	wordpools/wordpool_SP.txt	CORDERO	10	2	[0, 0, 0]	n/a	FR1	1	R1070T
425.588	1.6	810871	WORD	n/a	wordpools/wordpool_SP.txt	MADERA	11	2	[0, 0, 0]	n/a	FR1	1	R1070T
428.022	1.6	813305	WORD	n/a	wordpools/wordpool_SP.txt	DURAZNO	12	2	[0, 0, 0]	n/a	FR1	1	R1070T
429.639	0.001	814922	DISTRACT_START	n/a	n/a	n/a	-999	2	[0, 0, 0]	n/a	FR1	1	R1070T
429.64	0.016	814923	START	n/a	n/a	n/a	-999	2	[-999, -999, -999]	n/a	FR1	1	R1070T
429.656	10.435	814939	PROB	10.4	n/a	n/a	-999	2	[8, 6, 1]	15.0	FR1	1	R1070T
440.091	3.901	825374	PROB	3.877	n/a	n/a	-999	2	[6, 6, 1]	13.0	FR1	1	R1070T
443.992	4.834	829274	PROB	4.8	n/a	n/a	-999	2	[6, 8, 2]	16.0	FR1	1	R1070T
448.826	5.637	834108	PROB	5.637	n/a	n/a	-999	2	[2, 6, 2]	10.0	FR1	1	R1070T
454.463	0.013	839745	STOP	n/a	n/a	n/a	-999	2	[-999, -999, -999]	n/a	FR1	1	R1070T
454.476	1.052	839758	DISTRACT_END	n/a	n/a	n/a	-999	2	[0, 0, 0]	n/a	FR1	1	R1070T
455.528	30.0	840810	REC_START	n/a	n/a	n/a	-999	2	[0, 0, 0]	n/a	FR1	1	R1070T
485.528	0.01	870808	REC_WORD_VV	30.0	n/a	<>	-999	2	[0, 0, 0]	n/a	FR1	1	R1070T
485.538	8.463	870818	REC_END	n/a	n/a	n/a	-999	2	[0, 0, 0]	n/a	FR1	1	R1070T
494.001	10.0	879281	COUNTDOWN_START	n/a	n/a	n/a	-999	3	[0, 0, 0]	n/a	FR1	1	R1070T
494.001	10.428	879281	TRIAL	n/a	n/a	n/a	-999	3	[0, 0, 0]	n/a	FR1	1	R1070T
504.429	0.006	889708	COUNTDOWN_END	n/a	n/a	n/a	-999	3	[0, 0, 0]	n/a	FR1	1	R1070T
504.435	1.6	889714	ORIENT	n/a	n/a	n/a	-999	3	[0, 0, 0]	n/a	FR1	1	R1070T
506.87	1.6	892149	WORD	n/a	wordpools/wordpool_SP.txt	MENTON	1	3	[0, 0, 0]	n/a	FR1	1	R1070T
509.436	1.6	894715	WORD	n/a	wordpools/wordpool_SP.txt	SEMILLA	2	3	[0, 0, 0]	n/a	FR1	1	R1070T
511.921	1.6	897200	WORD	n/a	wordpools/wordpool_SP.txt	SOPA	3	3	[0, 0, 0]	n/a	FR1	1	R1070T
514.537	1.6	899816	WORD	n/a	wordpools/wordpool_SP.txt	VID	4	3	[0, 0, 0]	n/a	FR1	1	R1070T
516.972	1.6	902251	WORD	n/a	wordpools/wordpool_SP.txt	SILLA	5	3	[0, 0, 0]	n/a	FR1	1	R1070T
519.556	1.6	904835	WORD	n/a	wordpools/wordpool_SP.txt	RAMA	6	3	[0, 0, 0]	n/a	FR1	1	R1070T
522.155	1.6	907434	WORD	n/a	wordpools/wordpool_SP.txt	DULCE	7	3	[0, 0, 0]	n/a	FR1	1	R1070T
524.74	1.6	910018	WORD	n/a	wordpools/wordpool_SP.txt	FRUTA	8	3	[0, 0, 0]	n/a	FR1	1	R1070T
527.19	1.6	912468	WORD	n/a	wordpools/wordpool_SP.txt	JUGO	9	3	[0, 0, 0]	n/a	FR1	1	R1070T
529.758	1.6	915036	WORD	n/a	wordpools/wordpool_SP.txt	DEDO	10	3	[0, 0, 0]	n/a	FR1	1	R1070T
532.34	1.6	917618	WORD	n/a	wordpools/wordpool_SP.txt	POZO	11	3	[0, 0, 0]	n/a	FR1	1	R1070T
534.892	1.6	920170	WORD	n/a	wordpools/wordpool_SP.txt	FILETE	12	3	[0, 0, 0]	n/a	FR1	1	R1070T
536.508	0.001	921786	DISTRACT_START	n/a	n/a	n/a	-999	3	[0, 0, 0]	n/a	FR1	1	R1070T
536.509	0.016	921787	START	n/a	n/a	n/a	-999	3	[-999, -999, -999]	n/a	FR1	1	R1070T
536.525	8.152	921803	PROB	8.131	n/a	n/a	-999	3	[8, 8, 9]	25.0	FR1	1	R1070T
544.677	9.601	929954	PROB	9.578	n/a	n/a	-999	3	[6, 9, 7]	22.0	FR1	1	R1070T
554.278	4.985	939555	PROB	4.985	n/a	n/a	-999	3	[2, 5, 6]	13.0	FR1	1	R1070T
559.263	0.016	944540	STOP	n/a	n/a	n/a	-999	3	[-999, -999, -999]	n/a	FR1	1	R1070T
559.279	1.067	944556	DISTRACT_END	n/a	n/a	n/a	-999	3	[0, 0, 0]	n/a	FR1	1	R1070T
560.346	2.241	945623	REC_START	n/a	n/a	n/a	-999	3	[0, 0, 0]	n/a	FR1	1	R1070T
562.587	2.07	947864	REC_WORD	2.241	n/a	FIDEO	-999	3	[0, 0, 0]	n/a	FR1	1	R1070T
564.657	4.283	949933	REC_WORD	4.311	n/a	DEDO	10	3	[0, 0, 0]	n/a	FR1	1	R1070T
568.94	11.026	954216	REC_WORD	8.594	n/a	COPA	-999	3	[0, 0, 0]	n/a	FR1	1	R1070T
579.966	10.394	965242	REC_WORD	19.62	n/a	PASTA	-999	3	[0, 0, 0]	n/a	FR1	1	R1070T
590.36	8.594	975635	REC_END	n/a	n/a	n/a	-999	3	[0, 0, 0]	n/a	FR1	1	R1070T
598.954	0.0	984229	TRIAL	n/a	n/a	n/a	-999	4	[0, 0, 0]	n/a	FR1	1	R1070T
598.954	10.0	984229	COUNTDOWN_START	n/a	n/a	n/a	-999	4	[0, 0, 0]	n/a	FR1	1	R1070T
609.382	0.006	994656	COUNTDOWN_END	n/a	n/a	n/a	-999	4	[0, 0, 0]	n/a	FR1	1	R1070T
609.388	1.6	994662	ORIENT	n/a	n/a	n/a	-999	4	[0, 0, 0]	n/a	FR1	1	R1070T
611.923	1.6	997197	WORD	n/a	wordpools/wordpool_SP.txt	SOL	1	4	[0, 0, 0]	n/a	FR1	1	R1070T
614.339	1.6	999613	WORD	n/a	wordpools/wordpool_SP.txt	CAPA	2	4	[0, 0, 0]	n/a	FR1	1	R1070T
616.807	1.6	1002081	WORD	n/a	wordpools/wordpool_SP.txt	BANO	3	4	[0, 0, 0]	n/a	FR1	1	R1070T
619.19	1.6	1004464	WORD	n/a	wordpools/wordpool_SP.txt	VELA	4	4	[0, 0, 0]	n/a	FR1	1	R1070T
621.791	1.6	1007065	WORD	n/a	wordpools/wordpool_SP.txt	PIERNA	5	4	[0, 0, 0]	n/a	FR1	1	R1070T
624.391	1.6	1009665	WORD	n/a	wordpools/wordpool_SP.txt	ROSA	6	4	[0, 0, 0]	n/a	FR1	1	R1070T
626.825	1.6	1012098	WORD	n/a	wordpools/wordpool_SP.txt	TAPETE	7	4	[0, 0, 0]	n/a	FR1	1	R1070T
629.292	1.6	1014565	WORD	n/a	wordpools/wordpool_SP.txt	ALCES	8	4	[0, 0, 0]	n/a	FR1	1	R1070T
631.843	1.6	1017116	WORD	n/a	wordpools/wordpool_SP.txt	BOTE	9	4	[0, 0, 0]	n/a	FR1	1	R1070T
634.226	1.6	1019499	WORD	n/a	wordpools/wordpool_SP.txt	HIELO	10	4	[0, 0, 0]	n/a	FR1	1	R1070T
636.794	1.6	1022067	WORD	n/a	wordpools/wordpool_SP.txt	PASTEL	11	4	[0, 0, 0]	n/a	FR1	1	R1070T
639.26	1.6	1024533	WORD	n/a	wordpools/wordpool_SP.txt	CERCA	12	4	[0, 0, 0]	n/a	FR1	1	R1070T
640.878	0.001	1026151	DISTRACT_START	n/a	n/a	n/a	-999	4	[0, 0, 0]	n/a	FR1	1	R1070T
640.879	0.016	1026152	START	n/a	n/a	n/a	-999	4	[-999, -999, -999]	n/a	FR1	1	R1070T
640.895	9.584	1026168	PROB	9.56	n/a	n/a	-999	4	[9, 7, 5]	21.0	FR1	1	R1070T
650.479	5.751	1035751	PROB	5.728	n/a	n/a	-999	4	[3, 7, 9]	19.0	FR1	1	R1070T
656.23	4.746	1041502	PROB	4.746	n/a	n/a	-999	4	[2, 2, 5]	9.0	FR1	1	R1070T
660.976	0.006	1046248	STOP	n/a	n/a	n/a	-999	4	[-999, -999, -999]	n/a	FR1	1	R1070T
660.982	1.1	1046254	DISTRACT_END	n/a	n/a	n/a	-999	4	[0, 0, 0]	n/a	FR1	1	R1070T
662.082	2.5	1047354	REC_START	n/a	n/a	n/a	-999	4	[0, 0, 0]	n/a	FR1	1	R1070T
664.582	3.507	1049854	REC_WORD	2.5	n/a	PATIO	-999	4	[0, 0, 0]	n/a	FR1	1	R1070T
668.089	24.004	1053360	REC_WORD	6.007	n/a	TAPETE	7	4	[0, 0, 0]	n/a	FR1	1	R1070T
692.093	6.094	1077363	REC_END	n/a	n/a	n/a	-999	4	[0, 0, 0]	n/a	FR1	1	R1070T
698.187	10.0	1083457	COUNTDOWN_START	n/a	n/a	n/a	-999	5	[0, 0, 0]	n/a	FR1	1	R1070T
698.188	10.427	1083458	TRIAL	n/a	n/a	n/a	-999	5	[0, 0, 0]	n/a	FR1	1	R1070T
708.615	0.009	1093884	COUNTDOWN_END	n/a	n/a	n/a	-999	5	[0, 0, 0]	n/a	FR1	1	R1070T
708.624	1.6	1093893	ORIENT	n/a	n/a	n/a	-999	5	[0, 0, 0]	n/a	FR1	1	R1070T
711.206	1.6	1096475	WORD	n/a	wordpools/wordpool_SP.txt	TELEFONO	1	5	[0, 0, 0]	n/a	FR1	1	R1070T
713.591	1.6	1098860	WORD	n/a	wordpools/wordpool_SP.txt	UVA	2	5	[0, 0, 0]	n/a	FR1	1	R1070T
716.141	1.6	1101410	WORD	n/a	wordpools/wordpool_SP.txt	PAPALOTE	3	5	[0, 0, 0]	n/a	FR1	1	R1070T
718.609	1.6	1103878	WORD	n/a	wordpools/wordpool_SP.txt	CONO	4	5	[0, 0, 0]	n/a	FR1	1	R1070T
721.142	1.6	1106411	WORD	n/a	wordpools/wordpool_SP.txt	CANDADO	5	5	[0, 0, 0]	n/a	FR1	1	R1070T
723.626	1.6	1108895	WORD	n/a	wordpools/wordpool_SP.txt	LECHE	6	5	[0, 0, 0]	n/a	FR1	1	R1070T
726.044	1.6	1111313	WORD	n/a	wordpools/wordpool_SP.txt	RATON	7	5	[0, 0, 0]	n/a	FR1	1	R1070T
728.644	1.6	1113912	WORD	n/a	wordpools/wordpool_SP.txt	CORONA	8	5	[0, 0, 0]	n/a	FR1	1	R1070T
731.078	1.6	1116346	WORD	n/a	wordpools/wordpool_SP.txt	PERA	9	5	[0, 0, 0]	n/a	FR1	1	R1070T
733.645	1.6	1118913	WORD	n/a	wordpools/wordpool_SP.txt	SERPIENTE	10	5	[0, 0, 0]	n/a	FR1	1	R1070T
736.112	1.6	1121380	WORD	n/a	wordpools/wordpool_SP.txt	ZAPATO	11	5	[0, 0, 0]	n/a	FR1	1	R1070T
738.612	1.6	1123880	WORD	n/a	wordpools/wordpool_SP.txt	PERLA	12	5	[0, 0, 0]	n/a	FR1	1	R1070T
740.228	0.001	1125496	DISTRACT_START	n/a	n/a	n/a	-999	5	[0, 0, 0]	n/a	FR1	1	R1070T
740.229	0.016	1125497	START	n/a	n/a	n/a	-999	5	[-999, -999, -999]	n/a	FR1	1	R1070T
740.245	10.82	1125513	PROB	10.787	n/a	n/a	-999	5	[8, 7, 6]	21.0	FR1	1	R1070T
751.065	6.884	1136332	PROB	6.855	n/a	n/a	-999	5	[9, 9, 8]	26.0	FR1	1	R1070T
757.949	8.338	1143216	PROB	8.338	n/a	n/a	-999	5	[8, 3, 8]	18.0	FR1	1	R1070T
766.287	0.013	1151554	STOP	n/a	n/a	n/a	-999	5	[-999, -999, -999]	n/a	FR1	1	R1070T
766.3	1.034	1151567	DISTRACT_END	n/a	n/a	n/a	-999	5	[0, 0, 0]	n/a	FR1	1	R1070T
767.334	30.0	1152601	REC_START	n/a	n/a	n/a	-999	5	[0, 0, 0]	n/a	FR1	1	R1070T
797.334	0.011	1182599	REC_WORD_VV	30.0	n/a	<>	-999	5	[0, 0, 0]	n/a	FR1	1	R1070T
797.345	35.834	1182610	REC_END	n/a	n/a	n/a	-999	5	[0, 0, 0]	n/a	FR1	1	R1070T
833.179	0.0	1218442	TRIAL	n/a	n/a	n/a	-999	6	[0, 0, 0]	n/a	FR1	1	R1070T
833.179	10.0	1218442	COUNTDOWN_START	n/a	n/a	n/a	-999	6	[0, 0, 0]	n/a	FR1	1	R1070T
843.607	0.008	1228870	COUNTDOWN_END	n/a	n/a	n/a	-999	6	[0, 0, 0]	n/a	FR1	1	R1070T
843.615	1.6	1228878	ORIENT	n/a	n/a	n/a	-999	6	[0, 0, 0]	n/a	FR1	1	R1070T
846.248	1.6	1231511	WORD	n/a	wordpools/wordpool_SP.txt	PUERTA	1	6	[0, 0, 0]	n/a	FR1	1	R1070T
848.866	1.6	1234129	WORD	n/a	wordpools/wordpool_SP.txt	SONRISA	2	6	[0, 0, 0]	n/a	FR1	1	R1070T
851.482	1.6	1236744	WORD	n/a	wordpools/wordpool_SP.txt	RELOJ	3	6	[0, 0, 0]	n/a	FR1	1	R1070T
853.867	1.6	1239129	WORD	n/a	wordpools/wordpool_SP.txt	REMO	4	6	[0, 0, 0]	n/a	FR1	1	R1070T
856.483	1.6	1241745	WORD	n/a	wordpools/wordpool_SP.txt	LAMPARA	5	6	[0, 0, 0]	n/a	FR1	1	R1070T
858.884	1.6	1244146	WORD	n/a	wordpools/wordpool_SP.txt	ESTUFA	6	6	[0, 0, 0]	n/a	FR1	1	R1070T
861.301	1.6	1246563	WORD	n/a	wordpools/wordpool_SP.txt	PISO	7	6	[0, 0, 0]	n/a	FR1	1	R1070T
863.869	1.6	1249131	WORD	n/a	wordpools/wordpool_SP.txt	BOLIGRAFO	8	6	[0, 0, 0]	n/a	FR1	1	R1070T
866.418	1.6	1251680	WORD	n/a	wordpools/wordpool_SP.txt	PALO	9	6	[0, 0, 0]	n/a	FR1	1	R1070T
868.886	1.6	1254148	WORD	n/a	wordpools/wordpool_SP.txt	BOTA	10	6	[0, 0, 0]	n/a	FR1	1	R1070T
871.269	1.6	1256530	WORD	n/a	wordpools/wordpool_SP.txt	FICHA	11	6	[0, 0, 0]	n/a	FR1	1	R1070T
873.654	1.6	1258915	WORD	n/a	wordpools/wordpool_SP.txt	BRAZO	12	6	[0, 0, 0]	n/a	FR1	1	R1070T
875.27	0.001	1260531	DISTRACT_START	n/a	n/a	n/a	-999	6	[0, 0, 0]	n/a	FR1	1	R1070T
875.271	0.015	1260532	START	n/a	n/a	n/a	-999	6	[-999, -999, -999]	n/a	FR1	1	R1070T
875.286	8.403	1260547	PROB	8.37	n/a	n/a	-999	6	[5, 6, 8]	19.0	FR1	1	R1070T
883.689	6.884	1268950	PROB	6.854	n/a	n/a	-999	6	[9, 3, 2]	14.0	FR1	1	R1070T
890.573	13.858	1275833	PROB	13.858	n/a	n/a	-999	6	[5, 7, 9]	21.0	FR1	1	R1070T
904.431	0.011	1289691	STOP	n/a	n/a	n/a	-999	6	[-999, -999, -999]	n/a	FR1	1	R1070T
904.442	1.084	1289702	DISTRACT_END	n/a	n/a	n/a	-999	6	[0, 0, 0]	n/a	FR1	1	R1070T
905.526	2.078	1290786	REC_START	n/a	n/a	n/a	-999	6	[0, 0, 0]	n/a	FR1	1	R1070T
907.604	1.7	1292864	REC_WORD	2.078	n/a	PUERTA	1	6	[0, 0, 0]	n/a	FR1	1	R1070T
909.304	2.039	1294564	REC_WORD	3.778	n/a	ESTUFA	6	6	[0, 0, 0]	n/a	FR1	1	R1070T
911.343	16.327	1296602	REC_WORD	5.817	n/a	TRAMO	-999	6	[0, 0, 0]	n/a	FR1	1	R1070T
927.67	7.866	1312929	REC_WORD	22.144	n/a	LAMPARA	5	6	[0, 0, 0]	n/a	FR1	1	R1070T
935.536	7.347	1320794	REC_END	n/a	n/a	n/a	-999	6	[0, 0, 0]	n/a	FR1	1	R1070T
942.883	0.0	1328141	TRIAL	n/a	n/a	n/a	-999	7	[0, 0, 0]	n/a	FR1	1	R1070T
942.883	10.0	1328141	COUNTDOWN_START	n/a	n/a	n/a	-999	7	[0, 0, 0]	n/a	FR1	1	R1070T
953.311	0.006	1338568	COUNTDOWN_END	n/a	n/a	n/a	-999	7	[0, 0, 0]	n/a	FR1	1	R1070T
953.317	1.6	1338574	ORIENT	n/a	n/a	n/a	-999	7	[0, 0, 0]	n/a	FR1	1	R1070T
955.785	1.6	1341042	WORD	n/a	wordpools/wordpool_SP.txt	FRIJOL	1	7	[0, 0, 0]	n/a	FR1	1	R1070T
958.252	1.6	1343509	WORD	n/a	wordpools/wordpool_SP.txt	AVE	2	7	[0, 0, 0]	n/a	FR1	1	R1070T
960.77	1.6	1346027	WORD	n/a	wordpools/wordpool_SP.txt	PIE	3	7	[0, 0, 0]	n/a	FR1	1	R1070T
963.269	1.6	1348526	WORD	n/a	wordpools/wordpool_SP.txt	PICO	4	7	[0, 0, 0]	n/a	FR1	1	R1070T
965.837	1.6	1351094	WORD	n/a	wordpools/wordpool_SP.txt	PLANTA	5	7	[0, 0, 0]	n/a	FR1	1	R1070T
968.403	1.6	1353660	WORD	n/a	wordpools/wordpool_SP.txt	FLORECER	6	7	[0, 0, 0]	n/a	FR1	1	R1070T
970.922	1.6	1356179	WORD	n/a	wordpools/wordpool_SP.txt	HORMIGA	7	7	[0, 0, 0]	n/a	FR1	1	R1070T
973.304	1.6	1358560	WORD	n/a	wordpools/wordpool_SP.txt	ABEJA	8	7	[0, 0, 0]	n/a	FR1	1	R1070T
975.806	1.6	1361062	WORD	n/a	wordpools/wordpool_SP.txt	COMIDA	9	7	[0, 0, 0]	n/a	FR1	1	R1070T
978.438	1.6	1363694	WORD	n/a	wordpools/wordpool_SP.txt	PAN	10	7	[0, 0, 0]	n/a	FR1	1	R1070T
980.873	1.6	1366129	WORD	n/a	wordpools/wordpool_SP.txt	ARROZ	11	7	[0, 0, 0]	n/a	FR1	1	R1070T
983.423	1.6	1368679	WORD	n/a	wordpools/wordpool_SP.txt	ARBOL	12	7	[0, 0, 0]	n/a	FR1	1	R1070T
985.041	0.001	1370297	DISTRACT_START	n/a	n/a	n/a	-999	7	[0, 0, 0]	n/a	FR1	1	R1070T
985.042	0.015	1370298	START	n/a	n/a	n/a	-999	7	[-999, -999, -999]	n/a	FR1	1	R1070T
985.057	10.035	1370313	PROB	9.999	n/a	n/a	-999	7	[9, 7, 6]	22.0	FR1	1	R1070T
995.092	3.1	1380347	PROB	3.075	n/a	n/a	-999	7	[3, 9, 1]	13.0	FR1	1	R1070T
998.192	5.452	1383447	PROB	5.424	n/a	n/a	-999	7	[8, 7, 1]	16.0	FR1	1	R1070T
1003.644	4.204	1388899	PROB	4.204	n/a	n/a	-999	7	[5, 6, 4]	15.0	FR1	1	R1070T
1007.848	0.014	1393103	STOP	n/a	n/a	n/a	-999	7	[-999, -999, -999]	n/a	FR1	1	R1070T
1007.862	1.05	1393117	DISTRACT_END	n/a	n/a	n/a	-999	7	[0, 0, 0]	n/a	FR1	1	R1070T
1008.912	1.991	1394167	REC_START	n/a	n/a	n/a	-999	7	[0, 0, 0]	n/a	FR1	1	R1070T
1010.903	1.158	1396158	REC_WORD	1.991	n/a	ABEJA	8	7	[0, 0, 0]	n/a	FR1	1	R1070T
1012.061	26.862	1397316	REC_WORD	3.149	n/a	HORMIGA	7	7	[0, 0, 0]	n/a	FR1	1	R1070T
1038.923	21.915	1424176	REC_END	n/a	n/a	n/a	-999	7	[0, 0, 0]	n/a	FR1	1	R1070T
1060.838	0.0	1446090	TRIAL	n/a	n/a	n/a	-999	8	[0, 0, 0]	n/a	FR1	1	R1070T
1060.838	10.0	1446090	COUNTDOWN_START	n/a	n/a	n/a	-999	8	[0, 0, 0]	n/a	FR1	1	R1070T
1071.266	0.006	1456518	COUNTDOWN_END	n/a	n/a	n/a	-999	8	[0, 0, 0]	n/a	FR1	1	R1070T
1071.272	1.6	1456524	ORIENT	n/a	n/a	n/a	-999	8	[0, 0, 0]	n/a	FR1	1	R1070T
1073.673	1.6	1458925	WORD	n/a	wordpools/wordpool_SP.txt	ZORRO	1	8	[0, 0, 0]	n/a	FR1	1	R1070T
1076.173	1.6	1461424	WORD	n/a	wordpools/wordpool_SP.txt	BOLSA	2	8	[0, 0, 0]	n/a	FR1	1	R1070T
1078.674	1.6	1463925	WORD	n/a	wordpools/wordpool_SP.txt	VACA	3	8	[0, 0, 0]	n/a	FR1	1	R1070T
1081.174	1.6	1466425	WORD	n/a	wordpools/wordpool_SP.txt	GRUA	4	8	[0, 0, 0]	n/a	FR1	1	R1070T
1083.659	1.6	1468910	WORD	n/a	wordpools/wordpool_SP.txt	MUELLE	5	8	[0, 0, 0]	n/a	FR1	1	R1070T
1086.141	1.6	1471392	WORD	n/a	wordpools/wordpool_SP.txt	HACHA	6	8	[0, 0, 0]	n/a	FR1	1	R1070T
1088.509	1.6	1473760	WORD	n/a	wordpools/wordpool_SP.txt	OREJA	7	8	[0, 0, 0]	n/a	FR1	1	R1070T
1091.043	1.6	1476294	WORD	n/a	wordpools/wordpool_SP.txt	HIERBA	8	8	[0, 0, 0]	n/a	FR1	1	R1070T
1093.644	1.6	1478895	WORD	n/a	wordpools/wordpool_SP.txt	CUERVO	9	8	[0, 0, 0]	n/a	FR1	1	R1070T
1096.21	1.6	1481460	WORD	n/a	wordpools/wordpool_SP.txt	SAPO	10	8	[0, 0, 0]	n/a	FR1	1	R1070T
1098.661	1.6	1483911	WORD	n/a	wordpools/wordpool_SP.txt	MUNDO	11	8	[0, 0, 0]	n/a	FR1	1	R1070T
1101.161	1.6	1486411	WORD	n/a	wordpools/wordpool_SP.txt	OVEJA	12	8	[0, 0, 0]	n/a	FR1	1	R1070T
1102.762	0.001	1488012	DISTRACT_START	n/a	n/a	n/a	-999	8	[0, 0, 0]	n/a	FR1	1	R1070T
1102.763	0.016	1488013	START	n/a	n/a	n/a	-999	8	[-999, -999, -999]	n/a	FR1	1	R1070T
1102.779	8.434	1488029	PROB	8.412	n/a	n/a	-999	8	[8, 3, 7]	18.0	FR1	1	R1070T
1111.213	5.452	1496463	PROB	5.427	n/a	n/a	-999	8	[8, 1, 7]	16.0	FR1	1	R1070T
1116.665	6.143	1501914	PROB	6.143	n/a	n/a	-999	8	[8, 5, 2]	15.0	FR1	1	R1070T
1122.808	0.008	1508057	STOP	n/a	n/a	n/a	-999	8	[-999, -999, -999]	n/a	FR1	1	R1070T
1122.816	1.151	1508065	DISTRACT_END	n/a	n/a	n/a	-999	8	[0, 0, 0]	n/a	FR1	1	R1070T
1123.967	2.907	1509216	REC_START	n/a	n/a	n/a	-999	8	[0, 0, 0]	n/a	FR1	1	R1070T
1126.874	27.103	1512123	REC_WORD	2.907	n/a	ABEJA	-999	8	[0, 0, 0]	n/a	FR1	1	R1070T
1153.977	49.637	1539225	REC_END	n/a	n/a	n/a	-999	8	[0, 0, 0]	n/a	FR1	1	R1070T
1203.614	0.0	1588859	TRIAL	n/a	n/a	n/a	-999	9	[0, 0, 0]	n/a	FR1	1	R1070T
1203.614	10.0	1588859	COUNTDOWN_START	n/a	n/a	n/a	-999	9	[0, 0, 0]	n/a	FR1	1	R1070T
1214.042	0.007	1599287	COUNTDOWN_END	n/a	n/a	n/a	-999	9	[0, 0, 0]	n/a	FR1	1	R1070T
1214.049	1.6	1599294	ORIENT	n/a	n/a	n/a	-999	9	[0, 0, 0]	n/a	FR1	1	R1070T
1216.482	1.6	1601727	WORD	n/a	wordpools/wordpool_SP.txt	HOYO	1	9	[0, 0, 0]	n/a	FR1	1	R1070T
1219.033	1.6	1604277	WORD	n/a	wordpools/wordpool_SP.txt	CAMA	2	9	[0, 0, 0]	n/a	FR1	1	R1070T
1221.499	1.6	1606743	WORD	n/a	wordpools/wordpool_SP.txt	TREN	3	9	[0, 0, 0]	n/a	FR1	1	R1070T
1223.967	1.6	1609211	WORD	n/a	wordpools/wordpool_SP.txt	CARRO	4	9	[0, 0, 0]	n/a	FR1	1	R1070T
1226.484	1.6	1611728	WORD	n/a	wordpools/wordpool_SP.txt	ESTERA	5	9	[0, 0, 0]	n/a	FR1	1	R1070T
1229.052	1.6	1614296	WORD	n/a	wordpools/wordpool_SP.txt	LABERINTO	6	9	[0, 0, 0]	n/a	FR1	1	R1070T
1231.468	1.6	1616712	WORD	n/a	wordpools/wordpool_SP.txt	SOMBRERO	7	9	[0, 0, 0]	n/a	FR1	1	R1070T
1233.969	1.6	1619213	WORD	n/a	wordpools/wordpool_SP.txt	PARQUE	8	9	[0, 0, 0]	n/a	FR1	1	R1070T
1236.536	1.6	1621780	WORD	n/a	wordpools/wordpool_SP.txt	CAMION	9	9	[0, 0, 0]	n/a	FR1	1	R1070T
1239.153	1.6	1624396	WORD	n/a	wordpools/wordpool_SP.txt	CUADRADO	10	9	[0, 0, 0]	n/a	FR1	1	R1070T
1241.671	1.6	1626914	WORD	n/a	wordpools/wordpool_SP.txt	PRINCIPE	11	9	[0, 0, 0]	n/a	FR1	1	R1070T
1244.204	1.6	1629447	WORD	n/a	wordpools/wordpool_SP.txt	PEZUNA	12	9	[0, 0, 0]	n/a	FR1	1	R1070T
1245.821	0.001	1631064	DISTRACT_START	n/a	n/a	n/a	-999	9	[0, 0, 0]	n/a	FR1	1	R1070T
1245.822	0.016	1631065	START	n/a	n/a	n/a	-999	9	[-999, -999, -999]	n/a	FR1	1	R1070T
1245.838	8.202	1631081	PROB	8.178	n/a	n/a	-999	9	[1, 7, 6]	14.0	FR1	1	R1070T
1254.04	6.034	1639283	PROB	6.0	n/a	n/a	-999	9	[2, 5, 9]	16.0	FR1	1	R1070T
1260.074	7.782	1645316	PROB	7.782	n/a	n/a	-999	9	[6, 8, 4]	16.0	FR1	1	R1070T
1267.856	0.02	1653098	STOP	n/a	n/a	n/a	-999	9	[-999, -999, -999]	n/a	FR1	1	R1070T
1267.876	1.219	1653118	DISTRACT_END	n/a	n/a	n/a	-999	9	[0, 0, 0]	n/a	FR1	1	R1070T
1269.095	2.964	1654337	REC_START	n/a	n/a	n/a	-999	9	[0, 0, 0]	n/a	FR1	1	R1070T
1272.059	1.29	1657301	REC_WORD	2.964	n/a	HOYO	1	9	[0, 0, 0]	n/a	FR1	1	R1070T
1273.349	4.3	1658591	REC_WORD	4.254	n/a	CAMA	2	9	[0, 0, 0]	n/a	FR1	1	R1070T
1277.649	20.525	1662891	REC_WORD	8.554	n/a	SOMBRERO	7	9	[0, 0, 0]	n/a	FR1	1	R1070T
1298.174	0.929	1683414	REC_WORD	29.079	n/a	TREN	3	9	[0, 0, 0]	n/a	FR1	1	R1070T
1299.103	3.812	1684343	REC_END	n/a	n/a	n/a	-999	9	[0, 0, 0]	n/a	FR1	1	R1070T
1302.915	10.0	1688155	COUNTDOWN_START	n/a	n/a	n/a	-999	10	[0, 0, 0]	n/a	FR1	1	R1070T
1302.915	10.428	1688155	TRIAL	n/a	n/a	n/a	-999	10	[0, 0, 0]	n/a	FR1	1	R1070T
1313.343	0.007	1698583	COUNTDOWN_END	n/a	n/a	n/a	-999	10	[0, 0, 0]	n/a	FR1	1	R1070T
1313.35	1.6	1698590	ORIENT	n/a	n/a	n/a	-999	10	[0, 0, 0]	n/a	FR1	1	R1070T
1315.784	1.6	1701024	WORD	n/a	wordpools/wordpool_SP.txt	HALCON	1	10	[0, 0, 0]	n/a	FR1	1	R1070T
1318.3	1.6	1703540	WORD	n/a	wordpools/wordpool_SP.txt	CORREO	2	10	[0, 0, 0]	n/a	FR1	1	R1070T
1320.852	1.6	1706091	WORD	n/a	wordpools/wordpool_SP.txt	LIBRO	3	10	[0, 0, 0]	n/a	FR1	1	R1070T
1323.251	1.6	1708490	WORD	n/a	wordpools/wordpool_SP.txt	TIENDA	4	10	[0, 0, 0]	n/a	FR1	1	R1070T
1325.753	1.6	1710992	WORD	n/a	wordpools/wordpool_SP.txt	CABALLO	5	10	[0, 0, 0]	n/a	FR1	1	R1070T
1328.369	1.6	1713608	WORD	n/a	wordpools/wordpool_SP.txt	CUERDA	6	10	[0, 0, 0]	n/a	FR1	1	R1070T
1330.77	1.6	1716009	WORD	n/a	wordpools/wordpool_SP.txt	MURCIELAGO	7	10	[0, 0, 0]	n/a	FR1	1	R1070T
1333.22	1.6	1718459	WORD	n/a	wordpools/wordpool_SP.txt	GUISANTE	8	10	[0, 0, 0]	n/a	FR1	1	R1070T
1335.804	1.6	1721043	WORD	n/a	wordpools/wordpool_SP.txt	JET	9	10	[0, 0, 0]	n/a	FR1	1	R1070T
1338.287	1.6	1723526	WORD	n/a	wordpools/wordpool_SP.txt	CARCEL	10	10	[0, 0, 0]	n/a	FR1	1	R1070T
1340.656	1.6	1725894	WORD	n/a	wordpools/wordpool_SP.txt	HERRAMIENTA	11	10	[0, 0, 0]	n/a	FR1	1	R1070T
1343.039	1.6	1728277	WORD	n/a	wordpools/wordpool_SP.txt	PAGINA	12	10	[0, 0, 0]	n/a	FR1	1	R1070T
1344.656	0.001	1729894	DISTRACT_START	n/a	n/a	n/a	-999	10	[0, 0, 0]	n/a	FR1	1	R1070T
1344.657	0.016	1729895	START	n/a	n/a	n/a	-999	10	[-999, -999, -999]	n/a	FR1	1	R1070T
1344.673	7.284	1729911	PROB	7.263	n/a	n/a	-999	10	[3, 4, 9]	17.0	FR1	1	R1070T
1351.957	4.951	1737195	PROB	4.931	n/a	n/a	-999	10	[1, 6, 2]	9.0	FR1	1	R1070T
1356.908	5.968	1742146	PROB	5.948	n/a	n/a	-999	10	[8, 2, 5]	15.0	FR1	1	R1070T
1362.876	8.228	1748113	PROB	8.228	n/a	n/a	-999	10	[3, 8, 5]	16.0	FR1	1	R1070T
1371.104	0.007	1756341	STOP	n/a	n/a	n/a	-999	10	[-999, -999, -999]	n/a	FR1	1	R1070T
1371.111	1.183	1756348	DISTRACT_END	n/a	n/a	n/a	-999	10	[0, 0, 0]	n/a	FR1	1	R1070T
1372.294	3.026	1757531	REC_START	n/a	n/a	n/a	-999	10	[0, 0, 0]	n/a	FR1	1	R1070T
1375.32	9.833	1760557	REC_WORD	3.026	n/a	TREN	-999	10	[0, 0, 0]	n/a	FR1	1	R1070T
1385.153	17.155	1770389	REC_WORD	12.859	n/a	ALTO	-999	10	[0, 0, 0]	n/a	FR1	1	R1070T
1402.308	15.578	1787543	REC_END	n/a	n/a	n/a	-999	10	[0, 0, 0]	n/a	FR1	1	R1070T
1417.886	0.0	1803121	TRIAL	n/a	n/a	n/a	-999	11	[0, 0, 0]	n/a	FR1	1	R1070T
1417.886	10.0	1803121	COUNTDOWN_START	n/a	n/a	n/a	-999	11	[0, 0, 0]	n/a	FR1	1	R1070T
1428.314	0.006	1813548	COUNTDOWN_END	n/a	n/a	n/a	-999	11	[0, 0, 0]	n/a	FR1	1	R1070T
1428.32	1.6	1813554	ORIENT	n/a	n/a	n/a	-999	11	[0, 0, 0]	n/a	FR1	1	R1070T
1430.855	1.6	1816089	WORD	n/a	wordpools/wordpool_SP.txt	MAR	1	11	[0, 0, 0]	n/a	FR1	1	R1070T
1433.255	1.6	1818489	WORD	n/a	wordpools/wordpool_SP.txt	ESTRELLA	2	11	[0, 0, 0]	n/a	FR1	1	R1070T
1435.89	1.6	1821124	WORD	n/a	wordpools/wordpool_SP.txt	BARCO	3	11	[0, 0, 0]	n/a	FR1	1	R1070T
1438.389	1.6	1823623	WORD	n/a	wordpools/wordpool_SP.txt	VAPOR	4	11	[0, 0, 0]	n/a	FR1	1	R1070T
1440.974	1.6	1826207	WORD	n/a	wordpools/wordpool_SP.txt	BOMBA	5	11	[0, 0, 0]	n/a	FR1	1	R1070T
1443.558	1.6	1828791	WORD	n/a	wordpools/wordpool_SP.txt	JEEP	6	11	[0, 0, 0]	n/a	FR1	1	R1070T
1446.058	1.6	1831291	WORD	n/a	wordpools/wordpool_SP.txt	AVION	7	11	[0, 0, 0]	n/a	FR1	1	R1070T
1448.608	1.6	1833841	WORD	n/a	wordpools/wordpool_SP.txt	LUNA	8	11	[0, 0, 0]	n/a	FR1	1	R1070T
1451.141	1.6	1836374	WORD	n/a	wordpools/wordpool_SP.txt	PELICULA	9	11	[0, 0, 0]	n/a	FR1	1	R1070T
1453.508	1.6	1838741	WORD	n/a	wordpools/wordpool_SP.txt	NUBE	10	11	[0, 0, 0]	n/a	FR1	1	R1070T
1455.993	1.6	1841226	WORD	n/a	wordpools/wordpool_SP.txt	TANQUE	11	11	[0, 0, 0]	n/a	FR1	1	R1070T
1458.459	1.6	1843692	WORD	n/a	wordpools/wordpool_SP.txt	FLAUTA	12	11	[0, 0, 0]	n/a	FR1	1	R1070T
1460.06	0.001	1845293	DISTRACT_START	n/a	n/a	n/a	-999	11	[0, 0, 0]	n/a	FR1	1	R1070T
1460.061	0.016	1845294	START	n/a	n/a	n/a	-999	11	[-999, -999, -999]	n/a	FR1	1	R1070T
1460.077	6.417	1845310	PROB	6.394	n/a	n/a	-999	11	[4, 8, 3]	15.0	FR1	1	R1070T
1466.494	7.302	1851726	PROB	7.282	n/a	n/a	-999	11	[4, 1, 2]	7.0	FR1	1	R1070T
1473.796	5.6	1859028	PROB	5.579	n/a	n/a	-999	11	[5, 8, 2]	15.0	FR1	1	R1070T
1479.396	8.011	1864628	PROB	8.011	n/a	n/a	-999	11	[5, 7, 7]	19.0	FR1	1	R1070T
1487.407	0.008	1872638	STOP	n/a	n/a	n/a	-999	11	[-999, -999, -999]	n/a	FR1	1	R1070T
1487.415	1.1	1872646	DISTRACT_END	n/a	n/a	n/a	-999	11	[0, 0, 0]	n/a	FR1	1	R1070T
1488.515	1.034	1873746	REC_START	n/a	n/a	n/a	-999	11	[0, 0, 0]	n/a	FR1	1	R1070T
1489.549	1.14	1874780	REC_WORD	1.034	n/a	MAR	1	11	[0, 0, 0]	n/a	FR1	1	R1070T
1490.689	2.494	1875920	REC_WORD	2.174	n/a	BARCO	3	11	[0, 0, 0]	n/a	FR1	1	R1070T
1493.183	14.534	1878414	REC_WORD	4.668	n/a	ESTRELLA	2	11	[0, 0, 0]	n/a	FR1	1	R1070T
1507.717	10.812	1892947	REC_WORD	19.202	n/a	INTRUSION	-999	11	[0, 0, 0]	n/a	FR1	1	R1070T
1518.529	10.177	1903759	REC_END	n/a	n/a	n/a	-999	11	[0, 0, 0]	n/a	FR1	1	R1070T
1528.706	10.0	1913935	COUNTDOWN_START	n/a	n/a	n/a	-999	12	[0, 0, 0]	n/a	FR1	1	R1070T
1528.707	10.427	1913936	TRIAL	n/a	n/a	n/a	-999	12	[0, 0, 0]	n/a	FR1	1	R1070T
1539.134	0.007	1924363	COUNTDOWN_END	n/a	n/a	n/a	-999	12	[0, 0, 0]	n/a	FR1	1	R1070T
1539.141	1.6	1924370	ORIENT	n/a	n/a	n/a	-999	12	[0, 0, 0]	n/a	FR1	1	R1070T
1541.742	1.6	1926971	WORD	n/a	wordpools/wordpool_SP.txt	RASTRILLO	1	12	[0, 0, 0]	n/a	FR1	1	R1070T
1544.325	1.6	1929553	WORD	n/a	wordpools/wordpool_SP.txt	PRIMAVERA	2	12	[0, 0, 0]	n/a	FR1	1	R1070T
1546.776	1.6	1932004	WORD	n/a	wordpools/wordpool_SP.txt	GUSANO	3	12	[0, 0, 0]	n/a	FR1	1	R1070T
1549.159	1.6	1934387	WORD	n/a	wordpools/wordpool_SP.txt	RUBOR	4	12	[0, 0, 0]	n/a	FR1	1	R1070T
1551.561	1.6	1936789	WORD	n/a	wordpools/wordpool_SP.txt	LUNAR	5	12	[0, 0, 0]	n/a	FR1	1	R1070T
1554.011	1.6	1939239	WORD	n/a	wordpools/wordpool_SP.txt	CARRETERA	6	12	[0, 0, 0]	n/a	FR1	1	R1070T
1556.444	1.6	1941672	WORD	n/a	wordpools/wordpool_SP.txt	HOJA	7	12	[0, 0, 0]	n/a	FR1	1	R1070T
1558.945	1.6	1944173	WORD	n/a	wordpools/wordpool_SP.txt	TELARANA	8	12	[0, 0, 0]	n/a	FR1	1	R1070T
1561.495	1.6	1946723	WORD	n/a	wordpools/wordpool_SP.txt	COLA	9	12	[0, 0, 0]	n/a	FR1	1	R1070T
1563.963	1.6	1949190	WORD	n/a	wordpools/wordpool_SP.txt	ARBUSTO	10	12	[0, 0, 0]	n/a	FR1	1	R1070T
1566.429	1.6	1951656	WORD	n/a	wordpools/wordpool_SP.txt	PULGA	11	12	[0, 0, 0]	n/a	FR1	1	R1070T
1568.83	1.6	1954057	WORD	n/a	wordpools/wordpool_SP.txt	JAULA	12	12	[0, 0, 0]	n/a	FR1	1	R1070T
1570.446	0.001	1955673	DISTRACT_START	n/a	n/a	n/a	-999	12	[0, 0, 0]	n/a	FR1	1	R1070T
1570.447	0.016	1955674	START	n/a	n/a	n/a	-999	12	[-999, -999, -999]	n/a	FR1	1	R1070T
1570.463	4.751	1955690	PROB	4.72	n/a	n/a	-999	12	[8, 2, 4]	14.0	FR1	1	R1070T
1575.214	5.234	1960441	PROB	5.201	n/a	n/a	-999	12	[7, 4, 3]	14.0	FR1	1	R1070T
1580.448	6.652	1965675	PROB	6.624	n/a	n/a	-999	12	[2, 5, 6]	13.0	FR1	1	R1070T
1587.1	5.443	1972326	PROB	5.443	n/a	n/a	-999	12	[4, 3, 7]	14.0	FR1	1	R1070T
1592.543	0.008	1977769	STOP	n/a	n/a	n/a	-999	12	[-999, -999, -999]	n/a	FR1	1	R1070T
1592.551	1.068	1977777	DISTRACT_END	n/a	n/a	n/a	-999	12	[0, 0, 0]	n/a	FR1	1	R1070T
1593.619	29.994	1978845	REC_START	n/a	n/a	n/a	-999	12	[0, 0, 0]	n/a	FR1	1	R1070T
1623.613	0.016	2008838	REC_WORD_VV	29.994	n/a	<>	-999	12	[0, 0, 0]	n/a	FR1	1	R1070T
1623.629	46.736	2008854	REC_END	n/a	n/a	n/a	-999	12	[0, 0, 0]	n/a	FR1	1	R1070T
1670.365	0.0	2055587	TRIAL	n/a	n/a	n/a	-999	13	[0, 0, 0]	n/a	FR1	1	R1070T
1670.365	10.0	2055587	COUNTDOWN_START	n/a	n/a	n/a	-999	13	[0, 0, 0]	n/a	FR1	1	R1070T
1680.793	0.008	2066015	COUNTDOWN_END	n/a	n/a	n/a	-999	13	[0, 0, 0]	n/a	FR1	1	R1070T
1680.801	1.6	2066023	ORIENT	n/a	n/a	n/a	-999	13	[0, 0, 0]	n/a	FR1	1	R1070T
1683.2	1.6	2068422	WORD	n/a	wordpools/wordpool_SP.txt	BOCA	1	13	[0, 0, 0]	n/a	FR1	1	R1070T
1685.702	1.6	2070923	WORD	n/a	wordpools/wordpool_SP.txt	MUNECO	2	13	[0, 0, 0]	n/a	FR1	1	R1070T
1688.168	1.6	2073389	WORD	n/a	wordpools/wordpool_SP.txt	SELLO	3	13	[0, 0, 0]	n/a	FR1	1	R1070T
1690.769	1.6	2075990	WORD	n/a	wordpools/wordpool_SP.txt	MALEZA	4	13	[0, 0, 0]	n/a	FR1	1	R1070T
1693.385	1.6	2078606	WORD	n/a	wordpools/wordpool_SP.txt	PAYASO	5	13	[0, 0, 0]	n/a	FR1	1	R1070T
1695.804	1.6	2081025	WORD	n/a	wordpools/wordpool_SP.txt	CORBATA	6	13	[0, 0, 0]	n/a	FR1	1	R1070T
1698.286	1.6	2083507	WORD	n/a	wordpools/wordpool_SP.txt	MASCOTA	7	13	[0, 0, 0]	n/a	FR1	1	R1070T
1700.754	1.6	2085975	WORD	n/a	wordpools/wordpool_SP.txt	TRAPO	8	13	[0, 0, 0]	n/a	FR1	1	R1070T
1703.137	1.6	2088358	WORD	n/a	wordpools/wordpool_SP.txt	VENTILADOR	9	13	[0, 0, 0]	n/a	FR1	1	R1070T
1705.689	1.6	2090910	WORD	n/a	wordpools/wordpool_SP.txt	LOBO	10	13	[0, 0, 0]	n/a	FR1	1	R1070T
1708.089	1.6	2093309	WORD	n/a	wordpools/wordpool_SP.txt	RATA	11	13	[0, 0, 0]	n/a	FR1	1	R1070T
1710.472	1.6	2095692	WORD	n/a	wordpools/wordpool_SP.txt	MEDIA	12	13	[0, 0, 0]	n/a	FR1	1	R1070T
1712.073	0.001	2097293	DISTRACT_START	n/a	n/a	n/a	-999	13	[0, 0, 0]	n/a	FR1	1	R1070T
1712.074	0.016	2097294	START	n/a	n/a	n/a	-999	13	[-999, -999, -999]	n/a	FR1	1	R1070T
1712.09	8.585	2097310	PROB	8.558	n/a	n/a	-999	13	[9, 3, 5]	17.0	FR1	1	R1070T
1720.675	7.368	2105895	PROB	7.333	n/a	n/a	-999	13	[6, 7, 9]	22.0	FR1	1	R1070T
1728.043	7.901	2113262	PROB	7.901	n/a	n/a	-999	13	[9, 8, 8]	25.0	FR1	1	R1070T
1735.944	0.017	2121163	STOP	n/a	n/a	n/a	-999	13	[-999, -999, -999]	n/a	FR1	1	R1070T
1735.961	1.084	2121180	DISTRACT_END	n/a	n/a	n/a	-999	13	[0, 0, 0]	n/a	FR1	1	R1070T
1737.045	1.043	2122264	REC_START	n/a	n/a	n/a	-999	13	[0, 0, 0]	n/a	FR1	1	R1070T
1738.088	4.005	2123307	REC_WORD	1.043	n/a	RATA	11	13	[0, 0, 0]	n/a	FR1	1	R1070T
1742.093	2.634	2127312	REC_WORD	5.048	n/a	BOCA	1	13	[0, 0, 0]	n/a	FR1	1	R1070T
1744.727	22.328	2129946	REC_WORD	7.682	n/a	MUNECA	-999	13	[0, 0, 0]	n/a	FR1	1	R1070T
1767.055	4.846	2152272	REC_END	n/a	n/a	n/a	-999	13	[0, 0, 0]	n/a	FR1	1	R1070T
1771.901	0.0	2157118	TRIAL	n/a	n/a	n/a	-999	14	[0, 0, 0]	n/a	FR1	1	R1070T
1771.901	10.0	2157118	COUNTDOWN_START	n/a	n/a	n/a	-999	14	[0, 0, 0]	n/a	FR1	1	R1070T
1782.329	0.006	2167546	COUNTDOWN_END	n/a	n/a	n/a	-999	14	[0, 0, 0]	n/a	FR1	1	R1070T
1782.335	1.6	2167552	ORIENT	n/a	n/a	n/a	-999	14	[0, 0, 0]	n/a	FR1	1	R1070T
1784.753	1.6	2169970	WORD	n/a	wordpools/wordpool_SP.txt	CARPA	1	14	[0, 0, 0]	n/a	FR1	1	R1070T
1787.286	1.6	2172502	WORD	n/a	wordpools/wordpool_SP.txt	TABURETE	2	14	[0, 0, 0]	n/a	FR1	1	R1070T
1789.671	1.6	2174887	WORD	n/a	wordpools/wordpool_SP.txt	CUERNO	3	14	[0, 0, 0]	n/a	FR1	1	R1070T
1792.287	1.6	2177503	WORD	n/a	wordpools/wordpool_SP.txt	CAMISA	4	14	[0, 0, 0]	n/a	FR1	1	R1070T
1794.855	1.6	2180071	WORD	n/a	wordpools/wordpool_SP.txt	PATIO	5	14	[0, 0, 0]	n/a	FR1	1	R1070T
1797.354	1.6	2182570	WORD	n/a	wordpools/wordpool_SP.txt	TAZON	6	14	[0, 0, 0]	n/a	FR1	1	R1070T
1799.839	1.6	2185055	WORD	n/a	wordpools/wordpool_SP.txt	ASIENTO	7	14	[0, 0, 0]	n/a	FR1	1	R1070T
1802.389	1.6	2187605	WORD	n/a	wordpools/wordpool_SP.txt	AGUANIEVE	8	14	[0, 0, 0]	n/a	FR1	1	R1070T
1804.84	1.6	2190056	WORD	n/a	wordpools/wordpool_SP.txt	TIZA	9	14	[0, 0, 0]	n/a	FR1	1	R1070T
1807.406	1.6	2192622	WORD	n/a	wordpools/wordpool_SP.txt	PLATO	10	14	[0, 0, 0]	n/a	FR1	1	R1070T
1809.974	1.6	2195189	WORD	n/a	wordpools/wordpool_SP.txt	PANTALONES	11	14	[0, 0, 0]	n/a	FR1	1	R1070T
1812.374	1.6	2197589	WORD	n/a	wordpools/wordpool_SP.txt	BANDA	12	14	[0, 0, 0]	n/a	FR1	1	R1070T
1813.975	0.001	2199190	DISTRACT_START	n/a	n/a	n/a	-999	14	[0, 0, 0]	n/a	FR1	1	R1070T
1813.976	0.016	2199191	START	n/a	n/a	n/a	-999	14	[-999, -999, -999]	n/a	FR1	1	R1070T
1813.992	9.618	2199207	PROB	9.592	n/a	n/a	-999	14	[5, 7, 8]	20.0	FR1	1	R1070T
1823.61	6.65	2208825	PROB	6.629	n/a	n/a	-999	14	[9, 1, 1]	11.0	FR1	1	R1070T
1830.26	5.492	2215474	PROB	5.492	n/a	n/a	-999	14	[1, 9, 6]	16.0	FR1	1	R1070T
1835.752	0.01	2220966	STOP	n/a	n/a	n/a	-999	14	[-999, -999, -999]	n/a	FR1	1	R1070T
1835.762	1.018	2220976	DISTRACT_END	n/a	n/a	n/a	-999	14	[0, 0, 0]	n/a	FR1	1	R1070T
1836.78	1.371	2221994	REC_START	n/a	n/a	n/a	-999	14	[0, 0, 0]	n/a	FR1	1	R1070T
1838.151	3.93	2223365	REC_WORD	1.371	n/a	PANTALONES	11	14	[0, 0, 0]	n/a	FR1	1	R1070T
1842.081	6.306	2227295	REC_WORD	5.301	n/a	TAZON	6	14	[0, 0, 0]	n/a	FR1	1	R1070T
1848.387	2.967	2233601	REC_WORD	11.607	n/a	INTRUSION	-999	14	[0, 0, 0]	n/a	FR1	1	R1070T
1851.354	15.436	2236567	REC_WORD	14.574	n/a	ASIENTO	7	14	[0, 0, 0]	n/a	FR1	1	R1070T
1866.79	10.546	2252003	REC_END	n/a	n/a	n/a	-999	14	[0, 0, 0]	n/a	FR1	1	R1070T
1877.336	0.0	2262548	TRIAL	n/a	n/a	n/a	-999	15	[0, 0, 0]	n/a	FR1	1	R1070T
1877.336	10.0	2262548	COUNTDOWN_START	n/a	n/a	n/a	-999	15	[0, 0, 0]	n/a	FR1	1	R1070T
1887.764	0.008	2272976	COUNTDOWN_END	n/a	n/a	n/a	-999	15	[0, 0, 0]	n/a	FR1	1	R1070T
1887.772	1.6	2272984	ORIENT	n/a	n/a	n/a	-999	15	[0, 0, 0]	n/a	FR1	1	R1070T
1890.338	1.6	2275549	WORD	n/a	wordpools/wordpool_SP.txt	POLILLA	1	15	[0, 0, 0]	n/a	FR1	1	R1070T
1892.873	1.6	2278084	WORD	n/a	wordpools/wordpool_SP.txt	ALA	2	15	[0, 0, 0]	n/a	FR1	1	R1070T
1895.289	1.6	2280500	WORD	n/a	wordpools/wordpool_SP.txt	COSTILLA	3	15	[0, 0, 0]	n/a	FR1	1	R1070T
1897.873	1.6	2283084	WORD	n/a	wordpools/wordpool_SP.txt	HILO	4	15	[0, 0, 0]	n/a	FR1	1	R1070T
1900.423	1.6	2285634	WORD	n/a	wordpools/wordpool_SP.txt	RED	5	15	[0, 0, 0]	n/a	FR1	1	R1070T
1902.958	1.6	2288169	WORD	n/a	wordpools/wordpool_SP.txt	ESTANQUE	6	15	[0, 0, 0]	n/a	FR1	1	R1070T
1905.441	1.6	2290652	WORD	n/a	wordpools/wordpool_SP.txt	CARACOL	7	15	[0, 0, 0]	n/a	FR1	1	R1070T
1907.926	1.6	2293137	WORD	n/a	wordpools/wordpool_SP.txt	PEZ	8	15	[0, 0, 0]	n/a	FR1	1	R1070T
1910.308	1.6	2295518	WORD	n/a	wordpools/wordpool_SP.txt	CORDEL	9	15	[0, 0, 0]	n/a	FR1	1	R1070T
1912.926	1.6	2298136	WORD	n/a	wordpools/wordpool_SP.txt	MANO	10	15	[0, 0, 0]	n/a	FR1	1	R1070T
1915.543	1.6	2300753	WORD	n/a	wordpools/wordpool_SP.txt	BUHO	11	15	[0, 0, 0]	n/a	FR1	1	R1070T
1918.044	1.6	2303254	WORD	n/a	wordpools/wordpool_SP.txt	MOFETA	12	15	[0, 0, 0]	n/a	FR1	1	R1070T
1919.661	0.001	2304871	DISTRACT_START	n/a	n/a	n/a	-999	15	[0, 0, 0]	n/a	FR1	1	R1070T
1919.662	0.016	2304872	START	n/a	n/a	n/a	-999	15	[-999, -999, -999]	n/a	FR1	1	R1070T
1919.678	9.285	2304888	PROB	9.25	n/a	n/a	-999	15	[4, 6, 9]	19.0	FR1	1	R1070T
1928.963	8.901	2314173	PROB	8.869	n/a	n/a	-999	15	[8, 7, 6]	21.0	FR1	1	R1070T
1937.864	6.567	2323073	PROB	6.567	n/a	n/a	-999	15	[3, 1, 5]	9.0	FR1	1	R1070T
1944.431	0.017	2329640	STOP	n/a	n/a	n/a	-999	15	[-999, -999, -999]	n/a	FR1	1	R1070T
1944.448	1.118	2329657	DISTRACT_END	n/a	n/a	n/a	-999	15	[0, 0, 0]	n/a	FR1	1	R1070T
1945.566	30.011	2330775	REC_START	n/a	n/a	n/a	-999	15	[0, 0, 0]	n/a	FR1	1	R1070T
1975.577	0.003	2360784	REC_WORD_VV	30.011	n/a	<>	-999	15	[0, 0, 0]	n/a	FR1	1	R1070T
1975.58	15.643	2360787	REC_END	n/a	n/a	n/a	-999	15	[0, 0, 0]	n/a	FR1	1	R1070T
1991.223	0.0	2376429	TRIAL	n/a	n/a	n/a	-999	16	[0, 0, 0]	n/a	FR1	1	R1070T
1991.223	10.0	2376429	COUNTDOWN_START	n/a	n/a	n/a	-999	16	[0, 0, 0]	n/a	FR1	1	R1070T
2001.651	0.008	2386857	COUNTDOWN_END	n/a	n/a	n/a	-999	16	[0, 0, 0]	n/a	FR1	1	R1070T
2001.659	1.6	2386865	ORIENT	n/a	n/a	n/a	-999	16	[0, 0, 0]	n/a	FR1	1	R1070T
2004.043	1.6	2389249	WORD	n/a	wordpools/wordpool_SP.txt	MAPA	1	16	[0, 0, 0]	n/a	FR1	1	R1070T
2006.644	1.6	2391850	WORD	n/a	wordpools/wordpool_SP.txt	OSO	2	16	[0, 0, 0]	n/a	FR1	1	R1070T
2009.226	1.6	2394432	WORD	n/a	wordpools/wordpool_SP.txt	TALLO	3	16	[0, 0, 0]	n/a	FR1	1	R1070T
2011.694	1.6	2396899	WORD	n/a	wordpools/wordpool_SP.txt	POLO	4	16	[0, 0, 0]	n/a	FR1	1	R1070T
2014.161	1.6	2399366	WORD	n/a	wordpools/wordpool_SP.txt	DIENTE	5	16	[0, 0, 0]	n/a	FR1	1	R1070T
2016.562	1.6	2401767	WORD	n/a	wordpools/wordpool_SP.txt	TINTA	6	16	[0, 0, 0]	n/a	FR1	1	R1070T
2019.079	1.6	2404284	WORD	n/a	wordpools/wordpool_SP.txt	DIENTES	7	16	[0, 0, 0]	n/a	FR1	1	R1070T
2021.663	1.6	2406868	WORD	n/a	wordpools/wordpool_SP.txt	LIMO	8	16	[0, 0, 0]	n/a	FR1	1	R1070T
2024.163	1.6	2409368	WORD	n/a	wordpools/wordpool_SP.txt	SAL	9	16	[0, 0, 0]	n/a	FR1	1	R1070T
2026.664	1.6	2411869	WORD	n/a	wordpools/wordpool_SP.txt	RAIZ	10	16	[0, 0, 0]	n/a	FR1	1	R1070T
2029.213	1.6	2414418	WORD	n/a	wordpools/wordpool_SP.txt	RUEDA	11	16	[0, 0, 0]	n/a	FR1	1	R1070T
2031.748	1.6	2416953	WORD	n/a	wordpools/wordpool_SP.txt	BANCO	12	16	[0, 0, 0]	n/a	FR1	1	R1070T
2033.364	0.001	2418568	DISTRACT_START	n/a	n/a	n/a	-999	16	[0, 0, 0]	n/a	FR1	1	R1070T
2033.365	0.016	2418569	START	n/a	n/a	n/a	-999	16	[-999, -999, -999]	n/a	FR1	1	R1070T
2033.381	5.001	2418585	PROB	4.97	n/a	n/a	-999	16	[1, 6, 2]	9.0	FR1	1	R1070T
2038.382	4.618	2423586	PROB	4.586	n/a	n/a	-999	16	[4, 5, 1]	10.0	FR1	1	R1070T
2043.0	7.702	2428204	PROB	7.672	n/a	n/a	-999	16	[2, 8, 8]	18.0	FR1	1	R1070T
2050.702	5.785	2435906	PROB	5.785	n/a	n/a	-999	16	[4, 7, 9]	20.0	FR1	1	R1070T
2056.487	0.015	2441690	STOP	n/a	n/a	n/a	-999	16	[-999, -999, -999]	n/a	FR1	1	R1070T
2056.502	1.169	2441705	DISTRACT_END	n/a	n/a	n/a	-999	16	[0, 0, 0]	n/a	FR1	1	R1070T
2057.671	1.063	2442874	REC_START	n/a	n/a	n/a	-999	16	[0, 0, 0]	n/a	FR1	1	R1070T
2058.734	1.506	2443937	REC_WORD	1.063	n/a	DIENTE	5	16	[0, 0, 0]	n/a	FR1	1	R1070T
2060.24	4.393	2445443	REC_WORD	2.569	n/a	DIENTES	7	16	[0, 0, 0]	n/a	FR1	1	R1070T
2064.633	7.475	2449836	REC_WORD	6.962	n/a	RAIZ	10	16	[0, 0, 0]	n/a	FR1	1	R1070T
2072.108	15.572	2457311	REC_WORD	14.437	n/a	BOCA	-999	16	[0, 0, 0]	n/a	FR1	1	R1070T
2087.68	13.264	2472882	REC_END	n/a	n/a	n/a	-999	16	[0, 0, 0]	n/a	FR1	1	R1070T
2100.944	0.0	2486145	TRIAL	n/a	n/a	n/a	-999	17	[0, 0, 0]	n/a	FR1	1	R1070T
2100.944	10.0	2486145	COUNTDOWN_START	n/a	n/a	n/a	-999	17	[0, 0, 0]	n/a	FR1	1	R1070T
2111.372	0.006	2496573	COUNTDOWN_END	n/a	n/a	n/a	-999	17	[0, 0, 0]	n/a	FR1	1	R1070T
2111.378	1.6	2496579	ORIENT	n/a	n/a	n/a	-999	17	[0, 0, 0]	n/a	FR1	1	R1070T
2113.863	1.6	2499063	WORD	n/a	wordpools/wordpool_SP.txt	PULGAR	1	17	[0, 0, 0]	n/a	FR1	1	R1070T
2116.329	1.6	2501529	WORD	n/a	wordpools/wordpool_SP.txt	MANGA	2	17	[0, 0, 0]	n/a	FR1	1	R1070T
2118.781	1.6	2503981	WORD	n/a	wordpools/wordpool_SP.txt	RANA	3	17	[0, 0, 0]	n/a	FR1	1	R1070T
2121.28	1.6	2506480	WORD	n/a	wordpools/wordpool_SP.txt	TRAJE	4	17	[0, 0, 0]	n/a	FR1	1	R1070T
2123.715	1.6	2508915	WORD	n/a	wordpools/wordpool_SP.txt	TABLERO	5	17	[0, 0, 0]	n/a	FR1	1	R1070T
2126.148	1.6	2511348	WORD	n/a	wordpools/wordpool_SP.txt	CEPILLO	6	17	[0, 0, 0]	n/a	FR1	1	R1070T
2128.582	1.6	2513782	WORD	n/a	wordpools/wordpool_SP.txt	PIPA	7	17	[0, 0, 0]	n/a	FR1	1	R1070T
2130.966	1.6	2516166	WORD	n/a	wordpools/wordpool_SP.txt	UNA	8	17	[0, 0, 0]	n/a	FR1	1	R1070T
2133.482	1.6	2518682	WORD	n/a	wordpools/wordpool_SP.txt	BOLSO	9	17	[0, 0, 0]	n/a	FR1	1	R1070T
2136.067	1.6	2521266	WORD	n/a	wordpools/wordpool_SP.txt	TENEDOR	10	17	[0, 0, 0]	n/a	FR1	1	R1070T
2138.551	1.6	2523750	WORD	n/a	wordpools/wordpool_SP.txt	BANCA	11	17	[0, 0, 0]	n/a	FR1	1	R1070T
2141.018	1.6	2526217	WORD	n/a	wordpools/wordpool_SP.txt	FREGADERO	12	17	[0, 0, 0]	n/a	FR1	1	R1070T
2142.635	0.001	2527834	DISTRACT_START	n/a	n/a	n/a	-999	17	[0, 0, 0]	n/a	FR1	1	R1070T
2142.636	0.016	2527835	START	n/a	n/a	n/a	-999	17	[-999, -999, -999]	n/a	FR1	1	R1070T
2142.652	4.783	2527851	PROB	4.755	n/a	n/a	-999	17	[4, 5, 5]	14.0	FR1	1	R1070T
2147.435	3.851	2532634	PROB	3.828	n/a	n/a	-999	17	[6, 1, 1]	8.0	FR1	1	R1070T
2151.286	11.386	2536485	PROB	11.386	n/a	n/a	-999	17	[6, 3, 8]	17.0	FR1	1	R1070T
2162.672	0.017	2547870	STOP	n/a	n/a	n/a	-999	17	[-999, -999, -999]	n/a	FR1	1	R1070T
2162.689	1.117	2547887	DISTRACT_END	n/a	n/a	n/a	-999	17	[0, 0, 0]	n/a	FR1	1	R1070T
2163.806	1.748	2549004	REC_START	n/a	n/a	n/a	-999	17	[0, 0, 0]	n/a	FR1	1	R1070T
2165.554	5.226	2550752	REC_WORD	1.748	n/a	MANGA	2	17	[0, 0, 0]	n/a	FR1	1	R1070T
2170.78	7.652	2555978	REC_WORD	6.974	n/a	UNA	8	17	[0, 0, 0]	n/a	FR1	1	R1070T
2178.432	2.566	2563629	REC_WORD	14.626	n/a	TENEDOR	10	17	[0, 0, 0]	n/a	FR1	1	R1070T
2180.998	11.9	2566195	REC_WORD	17.192	n/a	INTRUSION	-999	17	[0, 0, 0]	n/a	FR1	1	R1070T
2192.898	0.922	2578095	REC_WORD	29.092	n/a	TRAJE	4	17	[0, 0, 0]	n/a	FR1	1	R1070T
2193.82	4.092	2579017	REC_END	n/a	n/a	n/a	-999	17	[0, 0, 0]	n/a	FR1	1	R1070T
2197.912	10.0	2583108	COUNTDOWN_START	n/a	n/a	n/a	-999	18	[0, 0, 0]	n/a	FR1	1	R1070T
2197.912	10.428	2583108	TRIAL	n/a	n/a	n/a	-999	18	[0, 0, 0]	n/a	FR1	1	R1070T
2208.34	0.006	2593536	COUNTDOWN_END	n/a	n/a	n/a	-999	18	[0, 0, 0]	n/a	FR1	1	R1070T
2208.346	1.6	2593542	ORIENT	n/a	n/a	n/a	-999	18	[0, 0, 0]	n/a	FR1	1	R1070T
2210.731	1.6	2595927	WORD	n/a	wordpools/wordpool_SP.txt	MONEDA	1	18	[0, 0, 0]	n/a	FR1	1	R1070T
2213.297	1.6	2598493	WORD	n/a	wordpools/wordpool_SP.txt	PARED	2	18	[0, 0, 0]	n/a	FR1	1	R1070T
2215.765	1.6	2600960	WORD	n/a	wordpools/wordpool_SP.txt	GUANTE	3	18	[0, 0, 0]	n/a	FR1	1	R1070T
2218.364	1.6	2603559	WORD	n/a	wordpools/wordpool_SP.txt	ESCUDO	4	18	[0, 0, 0]	n/a	FR1	1	R1070T
2220.733	1.6	2605928	WORD	n/a	wordpools/wordpool_SP.txt	CHISPA	5	18	[0, 0, 0]	n/a	FR1	1	R1070T
2223.299	1.6	2608494	WORD	n/a	wordpools/wordpool_SP.txt	LLUVIA	6	18	[0, 0, 0]	n/a	FR1	1	R1070T
2225.85	1.6	2611045	WORD	n/a	wordpools/wordpool_SP.txt	ESPONJA	7	18	[0, 0, 0]	n/a	FR1	1	R1070T
2228.349	1.6	2613544	WORD	n/a	wordpools/wordpool_SP.txt	CAJA	8	18	[0, 0, 0]	n/a	FR1	1	R1070T
2230.751	1.6	2615946	WORD	n/a	wordpools/wordpool_SP.txt	ANZUELO	9	18	[0, 0, 0]	n/a	FR1	1	R1070T
2233.251	1.6	2618446	WORD	n/a	wordpools/wordpool_SP.txt	BOLA	10	18	[0, 0, 0]	n/a	FR1	1	R1070T
2235.769	1.6	2620963	WORD	n/a	wordpools/wordpool_SP.txt	ELFO	11	18	[0, 0, 0]	n/a	FR1	1	R1070T
2238.185	1.6	2623379	WORD	n/a	wordpools/wordpool_SP.txt	MANGUERA	12	18	[0, 0, 0]	n/a	FR1	1	R1070T
2239.803	0.001	2624997	DISTRACT_START	n/a	n/a	n/a	-999	18	[0, 0, 0]	n/a	FR1	1	R1070T
2239.804	0.015	2624998	START	n/a	n/a	n/a	-999	18	[-999, -999, -999]	n/a	FR1	1	R1070T
2239.819	8.102	2625013	PROB	8.077	n/a	n/a	-999	18	[3, 7, 9]	19.0	FR1	1	R1070T
2247.921	4.951	2633115	PROB	4.927	n/a	n/a	-999	18	[7, 2, 3]	12.0	FR1	1	R1070T
2252.872	6.6	2638066	PROB	6.567	n/a	n/a	-999	18	[9, 4, 7]	20.0	FR1	1	R1070T
2259.472	8.927	2644665	PROB	8.927	n/a	n/a	-999	18	[1, 9, 3]	13.0	FR1	1	R1070T
2268.399	0.008	2653592	STOP	n/a	n/a	n/a	-999	18	[-999, -999, -999]	n/a	FR1	1	R1070T
2268.407	1.084	2653600	DISTRACT_END	n/a	n/a	n/a	-999	18	[0, 0, 0]	n/a	FR1	1	R1070T
2269.491	30.0	2654684	REC_START	n/a	n/a	n/a	-999	18	[0, 0, 0]	n/a	FR1	1	R1070T
2299.491	0.01	2684682	REC_WORD_VV	30.0	n/a	<>	-999	18	[0, 0, 0]	n/a	FR1	1	R1070T
2299.501	21.383	2684692	REC_END	n/a	n/a	n/a	-999	18	[0, 0, 0]	n/a	FR1	1	R1070T
2320.884	0.0	2706074	TRIAL	n/a	n/a	n/a	-999	19	[0, 0, 0]	n/a	FR1	1	R1070T
2320.884	10.0	2706074	COUNTDOWN_START	n/a	n/a	n/a	-999	19	[0, 0, 0]	n/a	FR1	1	R1070T
2331.312	0.006	2716502	COUNTDOWN_END	n/a	n/a	n/a	-999	19	[0, 0, 0]	n/a	FR1	1	R1070T
2331.318	1.6	2716508	ORIENT	n/a	n/a	n/a	-999	19	[0, 0, 0]	n/a	FR1	1	R1070T
2333.787	1.6	2718977	WORD	n/a	wordpools/wordpool_SP.txt	GUARDIA	1	19	[0, 0, 0]	n/a	FR1	1	R1070T
2336.369	1.6	2721559	WORD	n/a	wordpools/wordpool_SP.txt	PANTANO	2	19	[0, 0, 0]	n/a	FR1	1	R1070T
2338.754	1.6	2723943	WORD	n/a	wordpools/wordpool_SP.txt	PIEDRA	3	19	[0, 0, 0]	n/a	FR1	1	R1070T
2341.354	1.6	2726543	WORD	n/a	wordpools/wordpool_SP.txt	DARDO	4	19	[0, 0, 0]	n/a	FR1	1	R1070T
2343.972	1.6	2729161	WORD	n/a	wordpools/wordpool_SP.txt	CRIA	5	19	[0, 0, 0]	n/a	FR1	1	R1070T
2346.454	1.6	2731643	WORD	n/a	wordpools/wordpool_SP.txt	CUEVA	6	19	[0, 0, 0]	n/a	FR1	1	R1070T
2348.906	1.6	2734095	WORD	n/a	wordpools/wordpool_SP.txt	MAIZ	7	19	[0, 0, 0]	n/a	FR1	1	R1070T
2351.489	1.6	2736678	WORD	n/a	wordpools/wordpool_SP.txt	CERDO	8	19	[0, 0, 0]	n/a	FR1	1	R1070T
2353.873	1.6	2739062	WORD	n/a	wordpools/wordpool_SP.txt	BARRO	9	19	[0, 0, 0]	n/a	FR1	1	R1070T
2356.473	1.6	2741662	WORD	n/a	wordpools/wordpool_SP.txt	VENADO	10	19	[0, 0, 0]	n/a	FR1	1	R1070T
2359.008	1.6	2744196	WORD	n/a	wordpools/wordpool_SP.txt	ZANJA	11	19	[0, 0, 0]	n/a	FR1	1	R1070T
2361.457	1.6	2746645	WORD	n/a	wordpools/wordpool_SP.txt	LANZA	12	19	[0, 0, 0]	n/a	FR1	1	R1070T
2363.058	0.001	2748246	DISTRACT_START	n/a	n/a	n/a	-999	19	[0, 0, 0]	n/a	FR1	1	R1070T
2363.059	0.016	2748247	START	n/a	n/a	n/a	-999	19	[-999, -999, -999]	n/a	FR1	1	R1070T
2363.075	7.551	2748263	PROB	7.517	n/a	n/a	-999	19	[5, 6, 3]	14.0	FR1	1	R1070T
2370.626	5.051	2755814	PROB	5.03	n/a	n/a	-999	19	[4, 9, 3]	16.0	FR1	1	R1070T
2375.677	7.802	2760865	PROB	7.802	n/a	n/a	-999	19	[4, 4, 5]	13.0	FR1	1	R1070T
2383.479	0.016	2768666	STOP	n/a	n/a	n/a	-999	19	[-999, -999, -999]	n/a	FR1	1	R1070T
2383.495	1.152	2768682	DISTRACT_END	n/a	n/a	n/a	-999	19	[0, 0, 0]	n/a	FR1	1	R1070T
2384.647	1.32	2769834	REC_START	n/a	n/a	n/a	-999	19	[0, 0, 0]	n/a	FR1	1	R1070T
2385.967	1.028	2771154	REC_WORD	1.32	n/a	CERDO	8	19	[0, 0, 0]	n/a	FR1	1	R1070T
2386.995	15.923	2772182	REC_WORD	2.348	n/a	MAIZ	7	19	[0, 0, 0]	n/a	FR1	1	R1070T
2402.918	11.739	2788104	REC_WORD	18.271	n/a	INTRUSION	-999	19	[0, 0, 0]	n/a	FR1	1	R1070T
2414.657	12.396	2799843	REC_END	n/a	n/a	n/a	-999	19	[0, 0, 0]	n/a	FR1	1	R1070T
2427.053	10.0	2812238	COUNTDOWN_START	n/a	n/a	n/a	-999	20	[0, 0, 0]	n/a	FR1	1	R1070T
2427.054	10.427	2812239	TRIAL	n/a	n/a	n/a	-999	20	[0, 0, 0]	n/a	FR1	1	R1070T
2437.481	0.007	2822666	COUNTDOWN_END	n/a	n/a	n/a	-999	20	[0, 0, 0]	n/a	FR1	1	R1070T
2437.488	1.6	2822673	ORIENT	n/a	n/a	n/a	-999	20	[0, 0, 0]	n/a	FR1	1	R1070T
2439.939	1.6	2825123	WORD	n/a	wordpools/wordpool_SP.txt	VERJA	1	20	[0, 0, 0]	n/a	FR1	1	R1070T
2442.405	1.6	2827589	WORD	n/a	wordpools/wordpool_SP.txt	COLINA	2	20	[0, 0, 0]	n/a	FR1	1	R1070T
2444.89	1.6	2830074	WORD	n/a	wordpools/wordpool_SP.txt	MULA	3	20	[0, 0, 0]	n/a	FR1	1	R1070T
2447.389	1.6	2832573	WORD	n/a	wordpools/wordpool_SP.txt	NIDO	4	20	[0, 0, 0]	n/a	FR1	1	R1070T
2449.808	1.6	2834992	WORD	n/a	wordpools/wordpool_SP.txt	PERRO	5	20	[0, 0, 0]	n/a	FR1	1	R1070T
2452.357	1.6	2837541	WORD	n/a	wordpools/wordpool_SP.txt	GANSOS	6	20	[0, 0, 0]	n/a	FR1	1	R1070T
2454.859	1.6	2840043	WORD	n/a	wordpools/wordpool_SP.txt	JEFE	7	20	[0, 0, 0]	n/a	FR1	1	R1070T
2457.458	1.6	2842642	WORD	n/a	wordpools/wordpool_SP.txt	ANGUILA	8	20	[0, 0, 0]	n/a	FR1	1	R1070T
2459.876	1.6	2845059	WORD	n/a	wordpools/wordpool_SP.txt	CABRA	9	20	[0, 0, 0]	n/a	FR1	1	R1070T
2462.425	1.6	2847608	WORD	n/a	wordpools/wordpool_SP.txt	CIELO	10	20	[0, 0, 0]	n/a	FR1	1	R1070T
2464.81	1.6	2849993	WORD	n/a	wordpools/wordpool_SP.txt	PATO	11	20	[0, 0, 0]	n/a	FR1	1	R1070T
2467.36	1.6	2852543	WORD	n/a	wordpools/wordpool_SP.txt	ESPADA	12	20	[0, 0, 0]	n/a	FR1	1	R1070T
2468.978	0.0	2854161	DISTRACT_START	n/a	n/a	n/a	-999	20	[0, 0, 0]	n/a	FR1	1	R1070T
2468.978	0.016	2854161	START	n/a	n/a	n/a	-999	20	[-999, -999, -999]	n/a	FR1	1	R1070T
2468.994	11.202	2854177	PROB	11.165	n/a	n/a	-999	20	[4, 7, 4]	15.0	FR1	1	R1070T
2480.196	5.284	2865379	PROB	5.259	n/a	n/a	-999	20	[1, 6, 3]	10.0	FR1	1	R1070T
2485.48	7.392	2870662	PROB	7.392	n/a	n/a	-999	20	[4, 5, 7]	16.0	FR1	1	R1070T
2492.872	0.01	2878054	STOP	n/a	n/a	n/a	-999	20	[-999, -999, -999]	n/a	FR1	1	R1070T
2492.882	1.201	2878064	DISTRACT_END	n/a	n/a	n/a	-999	20	[0, 0, 0]	n/a	FR1	1	R1070T
2494.083	3.731	2879265	REC_START	n/a	n/a	n/a	-999	20	[0, 0, 0]	n/a	FR1	1	R1070T
2497.814	1.426	2882996	REC_WORD	3.731	n/a	MULA	3	20	[0, 0, 0]	n/a	FR1	1	R1070T
2499.24	24.853	2884422	REC_WORD	5.157	n/a	CAMPO	-999	20	[0, 0, 0]	n/a	FR1	1	R1070T
2524.093	15.096	2909273	REC_END	n/a	n/a	n/a	-999	20	[0, 0, 0]	n/a	FR1	1	R1070T
2539.189	10.0	2924369	COUNTDOWN_START	n/a	n/a	n/a	-999	21	[0, 0, 0]	n/a	FR1	1	R1070T
2539.19	10.427	2924370	TRIAL	n/a	n/a	n/a	-999	21	[0, 0, 0]	n/a	FR1	1	R1070T
2549.617	0.009	2934796	COUNTDOWN_END	n/a	n/a	n/a	-999	21	[0, 0, 0]	n/a	FR1	1	R1070T
2549.626	1.6	2934805	ORIENT	n/a	n/a	n/a	-999	21	[0, 0, 0]	n/a	FR1	1	R1070T
2552.093	1.6	2937272	WORD	n/a	wordpools/wordpool_SP.txt	JABON	1	21	[0, 0, 0]	n/a	FR1	1	R1070T
2554.476	1.6	2939655	WORD	n/a	wordpools/wordpool_SP.txt	PALMA	2	21	[0, 0, 0]	n/a	FR1	1	R1070T
2557.077	1.6	2942256	WORD	n/a	wordpools/wordpool_SP.txt	BASTON	3	21	[0, 0, 0]	n/a	FR1	1	R1070T
2559.661	1.6	2944840	WORD	n/a	wordpools/wordpool_SP.txt	TARRO	4	21	[0, 0, 0]	n/a	FR1	1	R1070T
2562.227	1.6	2947405	WORD	n/a	wordpools/wordpool_SP.txt	PISCINA	5	21	[0, 0, 0]	n/a	FR1	1	R1070T
2564.778	1.6	2949956	WORD	n/a	wordpools/wordpool_SP.txt	TOSTADA	6	21	[0, 0, 0]	n/a	FR1	1	R1070T
2567.245	1.6	2952423	WORD	n/a	wordpools/wordpool_SP.txt	JARRON	7	21	[0, 0, 0]	n/a	FR1	1	R1070T
2569.863	1.6	2955041	WORD	n/a	wordpools/wordpool_SP.txt	BANDEJA	8	21	[0, 0, 0]	n/a	FR1	1	R1070T
2572.362	1.6	2957540	WORD	n/a	wordpools/wordpool_SP.txt	CATRE	9	21	[0, 0, 0]	n/a	FR1	1	R1070T
2574.98	1.6	2960158	WORD	n/a	wordpools/wordpool_SP.txt	CASA	10	21	[0, 0, 0]	n/a	FR1	1	R1070T
2577.463	1.6	2962641	WORD	n/a	wordpools/wordpool_SP.txt	CUBO	11	21	[0, 0, 0]	n/a	FR1	1	R1070T
2579.915	1.6	2965093	WORD	n/a	wordpools/wordpool_SP.txt	CAMIONETA	12	21	[0, 0, 0]	n/a	FR1	1	R1070T
2581.531	0.0	2966709	DISTRACT_START	n/a	n/a	n/a	-999	21	[0, 0, 0]	n/a	FR1	1	R1070T
2581.531	0.017	2966709	START	n/a	n/a	n/a	-999	21	[-999, -999, -999]	n/a	FR1	1	R1070T
2581.548	10.352	2966726	PROB	10.324	n/a	n/a	-999	21	[5, 7, 9]	21.0	FR1	1	R1070T
2591.9	4.417	2977077	PROB	4.395	n/a	n/a	-999	21	[8, 7, 2]	17.0	FR1	1	R1070T
2596.317	4.184	2981494	PROB	4.154	n/a	n/a	-999	21	[3, 8, 1]	12.0	FR1	1	R1070T
2600.501	7.042	2985678	PROB	7.042	n/a	n/a	-999	21	[6, 2, 9]	17.0	FR1	1	R1070T
2607.543	0.01	2992719	STOP	n/a	n/a	n/a	-999	21	[-999, -999, -999]	n/a	FR1	1	R1070T
2607.553	1.167	2992729	DISTRACT_END	n/a	n/a	n/a	-999	21	[0, 0, 0]	n/a	FR1	1	R1070T
2608.72	1.778	2993896	REC_START	n/a	n/a	n/a	-999	21	[0, 0, 0]	n/a	FR1	1	R1070T
2610.498	5.3	2995674	REC_WORD	1.778	n/a	CASA	10	21	[0, 0, 0]	n/a	FR1	1	R1070T
2615.798	11.478	3000974	REC_WORD	7.078	n/a	INTRUSION	-999	21	[0, 0, 0]	n/a	FR1	1	R1070T
2627.276	11.455	3012451	REC_WORD	18.556	n/a	CAZUELA	-999	21	[0, 0, 0]	n/a	FR1	1	R1070T
2638.731	10.495	3023906	REC_END	n/a	n/a	n/a	-999	21	[0, 0, 0]	n/a	FR1	1	R1070T
2649.226	0.0	3034400	TRIAL	n/a	n/a	n/a	-999	22	[0, 0, 0]	n/a	FR1	1	R1070T
2649.226	10.0	3034400	COUNTDOWN_START	n/a	n/a	n/a	-999	22	[0, 0, 0]	n/a	FR1	1	R1070T
2659.654	0.008	3044828	COUNTDOWN_END	n/a	n/a	n/a	-999	22	[0, 0, 0]	n/a	FR1	1	R1070T
2659.662	1.6	3044836	ORIENT	n/a	n/a	n/a	-999	22	[0, 0, 0]	n/a	FR1	1	R1070T
2662.162	1.6	3047336	WORD	n/a	wordpools/wordpool_SP.txt	JUEZ	1	22	[0, 0, 0]	n/a	FR1	1	R1070T
2664.68	1.6	3049853	WORD	n/a	wordpools/wordpool_SP.txt	LLAVE	2	22	[0, 0, 0]	n/a	FR1	1	R1070T
2667.246	1.6	3052419	WORD	n/a	wordpools/wordpool_SP.txt	NINO	3	22	[0, 0, 0]	n/a	FR1	1	R1070T
2669.764	1.6	3054937	WORD	n/a	wordpools/wordpool_SP.txt	ESCRITORIO	4	22	[0, 0, 0]	n/a	FR1	1	R1070T
2672.33	1.6	3057503	WORD	n/a	wordpools/wordpool_SP.txt	EFECTIVO	5	22	[0, 0, 0]	n/a	FR1	1	R1070T
2674.765	1.6	3059938	WORD	n/a	wordpools/wordpool_SP.txt	BANDERA	6	22	[0, 0, 0]	n/a	FR1	1	R1070T
2677.181	1.6	3062354	WORD	n/a	wordpools/wordpool_SP.txt	CARNET	7	22	[0, 0, 0]	n/a	FR1	1	R1070T
2679.766	1.6	3064939	WORD	n/a	wordpools/wordpool_SP.txt	HABITACION	8	22	[0, 0, 0]	n/a	FR1	1	R1070T
2682.199	1.6	3067372	WORD	n/a	wordpools/wordpool_SP.txt	AUTO	9	22	[0, 0, 0]	n/a	FR1	1	R1070T
2684.683	1.6	3069855	WORD	n/a	wordpools/wordpool_SP.txt	SIGNO	10	22	[0, 0, 0]	n/a	FR1	1	R1070T
2687.118	1.6	3072290	WORD	n/a	wordpools/wordpool_SP.txt	ARCA	11	22	[0, 0, 0]	n/a	FR1	1	R1070T
2689.551	1.6	3074723	WORD	n/a	wordpools/wordpool_SP.txt	TARTA	12	22	[0, 0, 0]	n/a	FR1	1	R1070T
2691.167	0.001	3076339	DISTRACT_START	n/a	n/a	n/a	-999	22	[0, 0, 0]	n/a	FR1	1	R1070T
2691.168	0.016	3076340	START	n/a	n/a	n/a	-999	22	[-999, -999, -999]	n/a	FR1	1	R1070T
2691.184	10.836	3076356	PROB	10.8	n/a	n/a	-999	22	[6, 6, 7]	19.0	FR1	1	R1070T
2702.02	6.635	3087192	PROB	6.612	n/a	n/a	-999	22	[3, 8, 3]	14.0	FR1	1	R1070T
2708.655	5.72	3093826	PROB	5.72	n/a	n/a	-999	22	[8, 7, 6]	21.0	FR1	1	R1070T
2714.375	0.013	3099546	STOP	n/a	n/a	n/a	-999	22	[-999, -999, -999]	n/a	FR1	1	R1070T
2714.388	1.134	3099559	DISTRACT_END	n/a	n/a	n/a	-999	22	[0, 0, 0]	n/a	FR1	1	R1070T
2715.522	1.206	3100693	REC_START	n/a	n/a	n/a	-999	22	[0, 0, 0]	n/a	FR1	1	R1070T
2716.728	1.062	3101899	REC_WORD	1.206	n/a	JUEZ	1	22	[0, 0, 0]	n/a	FR1	1	R1070T
2717.79	0.891	3102961	REC_WORD	2.268	n/a	LLAVE	2	22	[0, 0, 0]	n/a	FR1	1	R1070T
2718.681	2.865	3103852	REC_WORD	3.159	n/a	NINO	3	22	[0, 0, 0]	n/a	FR1	1	R1070T
2721.546	2.242	3106717	REC_WORD	6.024	n/a	AUTO	9	22	[0, 0, 0]	n/a	FR1	1	R1070T
2723.788	21.745	3108959	REC_WORD	8.266	n/a	CARRO	-999	22	[0, 0, 0]	n/a	FR1	1	R1070T
2745.533	4.862	3130702	REC_END	n/a	n/a	n/a	-999	22	[0, 0, 0]	n/a	FR1	1	R1070T
2750.395	0.0	3135564	TRIAL	n/a	n/a	n/a	-999	23	[0, 0, 0]	n/a	FR1	1	R1070T
2750.395	10.0	3135564	COUNTDOWN_START	n/a	n/a	n/a	-999	23	[0, 0, 0]	n/a	FR1	1	R1070T
2760.823	0.008	3145992	COUNTDOWN_END	n/a	n/a	n/a	-999	23	[0, 0, 0]	n/a	FR1	1	R1070T
2760.831	1.6	3146000	ORIENT	n/a	n/a	n/a	-999	23	[0, 0, 0]	n/a	FR1	1	R1070T
2763.364	1.6	3148533	WORD	n/a	wordpools/wordpool_SP.txt	TORMENTA	1	23	[0, 0, 0]	n/a	FR1	1	R1070T
2765.915	1.6	3151083	WORD	n/a	wordpools/wordpool_SP.txt	ESPUMA	2	23	[0, 0, 0]	n/a	FR1	1	R1070T
2768.515	1.6	3153683	WORD	n/a	wordpools/wordpool_SP.txt	SORBETE	3	23	[0, 0, 0]	n/a	FR1	1	R1070T
2770.916	1.6	3156084	WORD	n/a	wordpools/wordpool_SP.txt	BASURA	4	23	[0, 0, 0]	n/a	FR1	1	R1070T
2773.449	1.6	3158617	WORD	n/a	wordpools/wordpool_SP.txt	PRECIPICIO	5	23	[0, 0, 0]	n/a	FR1	1	R1070T
2775.95	1.6	3161118	WORD	n/a	wordpools/wordpool_SP.txt	ESCALERA	6	23	[0, 0, 0]	n/a	FR1	1	R1070T
2778.366	1.6	3163534	WORD	n/a	wordpools/wordpool_SP.txt	VASO	7	23	[0, 0, 0]	n/a	FR1	1	R1070T
2780.835	1.6	3166003	WORD	n/a	wordpools/wordpool_SP.txt	BALLENA	8	23	[0, 0, 0]	n/a	FR1	1	R1070T
2783.367	1.6	3168535	WORD	n/a	wordpools/wordpool_SP.txt	LADRILLO	9	23	[0, 0, 0]	n/a	FR1	1	R1070T
2785.819	1.6	3170987	WORD	n/a	wordpools/wordpool_SP.txt	HUMO	10	23	[0, 0, 0]	n/a	FR1	1	R1070T
2788.418	1.6	3173585	WORD	n/a	wordpools/wordpool_SP.txt	SOGA	11	23	[0, 0, 0]	n/a	FR1	1	R1070T
2790.986	1.6	3176153	WORD	n/a	wordpools/wordpool_SP.txt	ROCA	12	23	[0, 0, 0]	n/a	FR1	1	R1070T
2792.603	0.001	3177770	DISTRACT_START	n/a	n/a	n/a	-999	23	[0, 0, 0]	n/a	FR1	1	R1070T
2792.604	0.016	3177771	START	n/a	n/a	n/a	-999	23	[-999, -999, -999]	n/a	FR1	1	R1070T
2792.62	6.667	3177787	PROB	6.643	n/a	n/a	-999	23	[9, 7, 4]	21.0	FR1	1	R1070T
2799.287	5.602	3184454	PROB	5.569	n/a	n/a	-999	23	[5, 8, 2]	15.0	FR1	1	R1070T
2804.889	6.201	3190056	PROB	6.167	n/a	n/a	-999	23	[5, 3, 6]	14.0	FR1	1	R1070T
2811.09	6.237	3196256	PROB	6.237	n/a	n/a	-999	23	[7, 7, 4]	18.0	FR1	1	R1070T
2817.327	0.013	3202493	STOP	n/a	n/a	n/a	-999	23	[-999, -999, -999]	n/a	FR1	1	R1070T
2817.34	1.084	3202506	DISTRACT_END	n/a	n/a	n/a	-999	23	[0, 0, 0]	n/a	FR1	1	R1070T
2818.424	3.551	3203590	REC_START	n/a	n/a	n/a	-999	23	[0, 0, 0]	n/a	FR1	1	R1070T
2821.975	1.0	3207141	REC_WORD	3.551	n/a	INTRUSION	-999	23	[0, 0, 0]	n/a	FR1	1	R1070T
2822.975	1.256	3208141	REC_WORD	4.551	n/a	TORMENTA	1	23	[0, 0, 0]	n/a	FR1	1	R1070T
2824.231	4.239	3209397	REC_WORD	5.807	n/a	RIO	-999	23	[0, 0, 0]	n/a	FR1	1	R1070T
2828.47	5.077	3213635	REC_WORD	10.046	n/a	ESCALERA	6	23	[0, 0, 0]	n/a	FR1	1	R1070T
2833.547	14.888	3218712	REC_WORD	15.123	n/a	VIENDO	-999	23	[0, 0, 0]	n/a	FR1	1	R1070T
2848.435	5.28	3233599	REC_END	n/a	n/a	n/a	-999	23	[0, 0, 0]	n/a	FR1	1	R1070T
2853.715	10.0	3238879	COUNTDOWN_START	n/a	n/a	n/a	-999	24	[0, 0, 0]	n/a	FR1	1	R1070T
2853.715	10.428	3238879	TRIAL	n/a	n/a	n/a	-999	24	[0, 0, 0]	n/a	FR1	1	R1070T
2864.143	0.006	3249307	COUNTDOWN_END	n/a	n/a	n/a	-999	24	[0, 0, 0]	n/a	FR1	1	R1070T
2864.149	1.6	3249313	ORIENT	n/a	n/a	n/a	-999	24	[0, 0, 0]	n/a	FR1	1	R1070T
2866.532	1.6	3251696	WORD	n/a	wordpools/wordpool_SP.txt	LLAMA	1	24	[0, 0, 0]	n/a	FR1	1	R1070T
2869.134	1.6	3254297	WORD	n/a	wordpools/wordpool_SP.txt	ESQUI	2	24	[0, 0, 0]	n/a	FR1	1	R1070T
2871.634	1.6	3256797	WORD	n/a	wordpools/wordpool_SP.txt	ALFILER	3	24	[0, 0, 0]	n/a	FR1	1	R1070T
2874.15	1.6	3259313	WORD	n/a	wordpools/wordpool_SP.txt	MONO	4	24	[0, 0, 0]	n/a	FR1	1	R1070T
2876.702	1.6	3261865	WORD	n/a	wordpools/wordpool_SP.txt	OLA	5	24	[0, 0, 0]	n/a	FR1	1	R1070T
2879.151	1.6	3264314	WORD	n/a	wordpools/wordpool_SP.txt	ESCOBA	6	24	[0, 0, 0]	n/a	FR1	1	R1070T
2881.72	1.6	3266883	WORD	n/a	wordpools/wordpool_SP.txt	PELAJE	7	24	[0, 0, 0]	n/a	FR1	1	R1070T
2884.169	1.6	3269332	WORD	n/a	wordpools/wordpool_SP.txt	NIEVE	8	24	[0, 0, 0]	n/a	FR1	1	R1070T
2886.637	1.6	3271800	WORD	n/a	wordpools/wordpool_SP.txt	NIEBLA	9	24	[0, 0, 0]	n/a	FR1	1	R1070T
2889.054	1.6	3274216	WORD	n/a	wordpools/wordpool_SP.txt	PLAYA	10	24	[0, 0, 0]	n/a	FR1	1	R1070T
2891.504	1.6	3276666	WORD	n/a	wordpools/wordpool_SP.txt	TAMBOR	11	24	[0, 0, 0]	n/a	FR1	1	R1070T
2893.955	1.6	3279117	WORD	n/a	wordpools/wordpool_SP.txt	LABIO	12	24	[0, 0, 0]	n/a	FR1	1	R1070T
2895.572	0.001	3280734	DISTRACT_START	n/a	n/a	n/a	-999	24	[0, 0, 0]	n/a	FR1	1	R1070T
2895.573	0.016	3280735	START	n/a	n/a	n/a	-999	24	[-999, -999, -999]	n/a	FR1	1	R1070T
2895.589	6.767	3280751	PROB	6.746	n/a	n/a	-999	24	[3, 5, 3]	11.0	FR1	1	R1070T
2902.356	8.435	3287518	PROB	8.412	n/a	n/a	-999	24	[6, 9, 8]	23.0	FR1	1	R1070T
2910.791	6.552	3295952	PROB	6.552	n/a	n/a	-999	24	[4, 3, 3]	10.0	FR1	1	R1070T
2917.343	0.015	3302504	STOP	n/a	n/a	n/a	-999	24	[-999, -999, -999]	n/a	FR1	1	R1070T
2917.358	1.185	3302519	DISTRACT_END	n/a	n/a	n/a	-999	24	[0, 0, 0]	n/a	FR1	1	R1070T
2918.543	8.354	3303704	REC_START	n/a	n/a	n/a	-999	24	[0, 0, 0]	n/a	FR1	1	R1070T
2926.897	20.67	3312058	REC_WORD	8.354	n/a	TORMENTA	-999	24	[0, 0, 0]	n/a	FR1	1	R1070T
2947.567	0.987	3332727	REC_WORD	29.024	n/a	NIEVE	8	24	[0, 0, 0]	n/a	FR1	1	R1070T
2948.554	6.728	3333714	REC_END	n/a	n/a	n/a	-999	24	[0, 0, 0]	n/a	FR1	1	R1070T
2955.282	0.0	3340441	TRIAL	n/a	n/a	n/a	-999	25	[0, 0, 0]	n/a	FR1	1	R1070T
2955.282	10.0	3340441	COUNTDOWN_START	n/a	n/a	n/a	-999	25	[0, 0, 0]	n/a	FR1	1	R1070T
2965.71	0.008	3350869	COUNTDOWN_END	n/a	n/a	n/a	-999	25	[0, 0, 0]	n/a	FR1	1	R1070T
2965.718	1.6	3350877	ORIENT	n/a	n/a	n/a	-999	25	[0, 0, 0]	n/a	FR1	1	R1070T
2968.218	1.6	3353377	WORD	n/a	wordpools/wordpool_SP.txt	VESTIDO	1	25	[0, 0, 0]	n/a	FR1	1	R1070T
2970.702	1.6	3355860	WORD	n/a	wordpools/wordpool_SP.txt	CESPED	2	25	[0, 0, 0]	n/a	FR1	1	R1070T
2973.235	1.6	3358393	WORD	n/a	wordpools/wordpool_SP.txt	GRANERO	3	25	[0, 0, 0]	n/a	FR1	1	R1070T
2975.837	1.6	3360995	WORD	n/a	wordpools/wordpool_SP.txt	ESCUELA	4	25	[0, 0, 0]	n/a	FR1	1	R1070T
2978.453	1.6	3363611	WORD	n/a	wordpools/wordpool_SP.txt	CHALECO	5	25	[0, 0, 0]	n/a	FR1	1	R1070T
2980.871	1.6	3366029	WORD	n/a	wordpools/wordpool_SP.txt	LODO	6	25	[0, 0, 0]	n/a	FR1	1	R1070T
2983.42	1.6	3368578	WORD	n/a	wordpools/wordpool_SP.txt	TECHO	7	25	[0, 0, 0]	n/a	FR1	1	R1070T
2985.855	1.6	3371013	WORD	n/a	wordpools/wordpool_SP.txt	NARIZ	8	25	[0, 0, 0]	n/a	FR1	1	R1070T
2988.455	1.6	3373613	WORD	n/a	wordpools/wordpool_SP.txt	CARA	9	25	[0, 0, 0]	n/a	FR1	1	R1070T
2990.973	1.6	3376130	WORD	n/a	wordpools/wordpool_SP.txt	CALLE	10	25	[0, 0, 0]	n/a	FR1	1	R1070T
2993.456	1.6	3378613	WORD	n/a	wordpools/wordpool_SP.txt	TIBURON	11	25	[0, 0, 0]	n/a	FR1	1	R1070T
2996.074	1.6	3381231	WORD	n/a	wordpools/wordpool_SP.txt	MEJILLA	12	25	[0, 0, 0]	n/a	FR1	1	R1070T
2997.691	0.0	3382848	DISTRACT_START	n/a	n/a	n/a	-999	25	[0, 0, 0]	n/a	FR1	1	R1070T
2997.691	0.016	3382848	START	n/a	n/a	n/a	-999	25	[-999, -999, -999]	n/a	FR1	1	R1070T
2997.707	4.717	3382864	PROB	4.684	n/a	n/a	-999	25	[3, 6, 1]	10.0	FR1	1	R1070T
3002.424	3.201	3387581	PROB	3.168	n/a	n/a	-999	25	[4, 6, 2]	12.0	FR1	1	R1070T
3005.625	7.617	3390782	PROB	7.582	n/a	n/a	-999	25	[5, 8, 3]	16.0	FR1	1	R1070T
3013.242	3.918	3398398	PROB	3.886	n/a	n/a	-999	25	[6, 6, 2]	14.0	FR1	1	R1070T
3017.16	7.456	3402316	PROB	7.456	n/a	n/a	-999	25	[8, 8, 9]	25.0	FR1	1	R1070T
3024.616	0.013	3409772	STOP	n/a	n/a	n/a	-999	25	[-999, -999, -999]	n/a	FR1	1	R1070T
3024.629	1.05	3409785	DISTRACT_END	n/a	n/a	n/a	-999	25	[0, 0, 0]	n/a	FR1	1	R1070T
3025.679	1.255	3410835	REC_START	n/a	n/a	n/a	-999	25	[0, 0, 0]	n/a	FR1	1	R1070T
3026.934	1.101	3412090	REC_WORD	1.255	n/a	CARA	9	25	[0, 0, 0]	n/a	FR1	1	R1070T
3028.035	3.186	3413191	REC_WORD	2.356	n/a	NARIZ	8	25	[0, 0, 0]	n/a	FR1	1	R1070T
3031.221	13.128	3416376	REC_WORD	5.542	n/a	VESTIDO	1	25	[0, 0, 0]	n/a	FR1	1	R1070T
3044.349	11.344	3429504	REC_WORD	18.67	n/a	SOMBRERO	-999	25	[0, 0, 0]	n/a	FR1	1	R1070T
3055.693	26.93	3440847	REC_END	n/a	n/a	n/a	-999	25	[0, 0, 0]	n/a	FR1	1	R1070T
3082.623	0.0	3467776	SESS_END	n/a	n/a	n/a	-999	25	[0, 0, 0]	n/a	FR1	1	R1070T
