onset	duration	sample	trial_type	response_time	stim_file	item_name	serialpos	list	test	answer	experiment	session	subject
0.0	100.501	329378	SESS_START	n/a	n/a	n/a	-999	-999	[0, 0, 0]	n/a	FR1	4	R1083J
100.501	10.0	429879	COUNTDOWN_START	n/a	n/a	n/a	-999	-999	[0, 0, 0]	n/a	FR1	4	R1083J
110.929	3.873	440306	COUNTDOWN_END	n/a	n/a	n/a	-999	-999	[0, 0, 0]	n/a	FR1	4	R1083J
114.802	1.6	444179	PRACTICE_WORD	n/a	n/a	TONGUE	1	-1	[0, 0, 0]	n/a	FR1	4	R1083J
117.252	1.6	446629	PRACTICE_WORD	n/a	n/a	RHINO	2	-1	[0, 0, 0]	n/a	FR1	4	R1083J
119.819	1.6	449196	PRACTICE_WORD	n/a	n/a	CHEST	3	-1	[0, 0, 0]	n/a	FR1	4	R1083J
122.22	1.6	451597	PRACTICE_WORD	n/a	n/a	RING	4	-1	[0, 0, 0]	n/a	FR1	4	R1083J
124.703	1.6	454080	PRACTICE_WORD	n/a	n/a	CAMEL	5	-1	[0, 0, 0]	n/a	FR1	4	R1083J
127.187	1.6	456564	PRACTICE_WORD	n/a	n/a	BEAM	6	-1	[0, 0, 0]	n/a	FR1	4	R1083J
129.721	1.6	459098	PRACTICE_WORD	n/a	n/a	ATTIC	7	-1	[0, 0, 0]	n/a	FR1	4	R1083J
132.204	1.6	461581	PRACTICE_WORD	n/a	n/a	IRON	8	-1	[0, 0, 0]	n/a	FR1	4	R1083J
134.721	1.6	464098	PRACTICE_WORD	n/a	n/a	FLOOD	9	-1	[0, 0, 0]	n/a	FR1	4	R1083J
137.255	1.6	466632	PRACTICE_WORD	n/a	n/a	COTTON	10	-1	[0, 0, 0]	n/a	FR1	4	R1083J
139.639	1.6	469016	PRACTICE_WORD	n/a	n/a	WATCH	11	-1	[0, 0, 0]	n/a	FR1	4	R1083J
142.122	1.6	471499	PRACTICE_WORD	n/a	n/a	WAGON	12	-1	[0, 0, 0]	n/a	FR1	4	R1083J
143.738	0.001	473115	PRACTICE_DISTRACT_START	n/a	n/a	n/a	-999	-1	[0, 0, 0]	n/a	FR1	4	R1083J
143.739	0.016	473116	START	n/a	n/a	n/a	-999	-1	[-999, -999, -999]	n/a	FR1	4	R1083J
143.755	3.484	473132	PROB	3.462	n/a	n/a	-999	-1	[7, 5, 6]	18.0	FR1	4	R1083J
147.239	3.219	476616	PROB	3.195	n/a	n/a	-999	-1	[9, 5, 3]	17.0	FR1	4	R1083J
150.458	2.582	479835	PROB	2.559	n/a	n/a	-999	-1	[1, 6, 5]	12.0	FR1	4	R1083J
153.04	2.034	482417	PROB	2.009	n/a	n/a	-999	-1	[7, 2, 8]	17.0	FR1	4	R1083J
155.074	1.9	484451	PROB	1.863	n/a	n/a	-999	-1	[4, 5, 4]	13.0	FR1	4	R1083J
156.974	2.75	486351	PROB	2.715	n/a	n/a	-999	-1	[8, 4, 7]	18.0	FR1	4	R1083J
159.724	1.735	489101	PROB	1.709	n/a	n/a	-999	-1	[1, 2, 1]	4.0	FR1	4	R1083J
161.459	1.933	490836	PROB	1.902	n/a	n/a	-999	-1	[9, 9, 5]	23.0	FR1	4	R1083J
163.392	2.945	492769	PROB	2.945	n/a	n/a	-999	-1	[7, 9, 2]	18.0	FR1	4	R1083J
166.337	0.005	495714	STOP	n/a	n/a	n/a	-999	-1	[-999, -999, -999]	n/a	FR1	4	R1083J
166.342	0.686	495719	PRACTICE_DISTRACT_END	n/a	n/a	n/a	-999	-1	[0, 0, 0]	n/a	FR1	4	R1083J
167.028	30.515	496405	PRACTICE_REC_START	n/a	n/a	n/a	-999	-1	[0, 0, 0]	n/a	FR1	4	R1083J
197.543	14.571	526920	PRACTICE_REC_END	n/a	n/a	n/a	-999	-1	[0, 0, 0]	n/a	FR1	4	R1083J
212.114	0.0	541491	TRIAL	n/a	n/a	n/a	-999	1	[0, 0, 0]	n/a	FR1	4	R1083J
212.114	10.0	541491	COUNTDOWN_START	n/a	n/a	n/a	-999	1	[0, 0, 0]	n/a	FR1	4	R1083J
222.542	0.008	551919	COUNTDOWN_END	n/a	n/a	n/a	-999	1	[0, 0, 0]	n/a	FR1	4	R1083J
222.55	1.6	551927	ORIENT	n/a	n/a	n/a	-999	1	[0, 0, 0]	n/a	FR1	4	R1083J
224.983	1.6	554360	WORD	n/a	wordpools/wordpool_EN.txt	SUIT	1	1	[0, 0, 0]	n/a	FR1	4	R1083J
227.383	1.6	556760	WORD	n/a	wordpools/wordpool_EN.txt	EAR	2	1	[0, 0, 0]	n/a	FR1	4	R1083J
229.967	1.6	559344	WORD	n/a	wordpools/wordpool_EN.txt	SWORD	3	1	[0, 0, 0]	n/a	FR1	4	R1083J
232.518	1.6	561895	WORD	n/a	wordpools/wordpool_EN.txt	CLOCK	4	1	[0, 0, 0]	n/a	FR1	4	R1083J
235.051	1.6	564428	WORD	n/a	wordpools/wordpool_EN.txt	PHONE	5	1	[0, 0, 0]	n/a	FR1	4	R1083J
237.619	1.6	566996	WORD	n/a	wordpools/wordpool_EN.txt	GATE	6	1	[0, 0, 0]	n/a	FR1	4	R1083J
240.152	1.6	569529	WORD	n/a	wordpools/wordpool_EN.txt	BOOK	7	1	[0, 0, 0]	n/a	FR1	4	R1083J
242.752	1.6	572129	WORD	n/a	wordpools/wordpool_EN.txt	MOUTH	8	1	[0, 0, 0]	n/a	FR1	4	R1083J
245.302	1.6	574679	WORD	n/a	wordpools/wordpool_EN.txt	BOY	9	1	[0, 0, 0]	n/a	FR1	4	R1083J
247.886	1.6	577263	WORD	n/a	wordpools/wordpool_EN.txt	HOUSE	10	1	[0, 0, 0]	n/a	FR1	4	R1083J
250.303	1.6	579680	WORD	n/a	wordpools/wordpool_EN.txt	BLUSH	11	1	[0, 0, 0]	n/a	FR1	4	R1083J
252.919	1.6	582296	WORD	n/a	wordpools/wordpool_EN.txt	VAN	12	1	[0, 0, 0]	n/a	FR1	4	R1083J
254.52	0.001	583897	DISTRACT_START	n/a	n/a	n/a	-999	1	[0, 0, 0]	n/a	FR1	4	R1083J
254.521	0.016	583898	START	n/a	n/a	n/a	-999	1	[-999, -999, -999]	n/a	FR1	4	R1083J
254.537	2.967	583914	PROB	2.933	n/a	n/a	-999	1	[3, 2, 8]	13.0	FR1	4	R1083J
257.504	3.7	586881	PROB	3.669	n/a	n/a	-999	1	[8, 9, 8]	25.0	FR1	4	R1083J
261.204	1.817	590581	PROB	1.793	n/a	n/a	-999	1	[1, 1, 5]	7.0	FR1	4	R1083J
263.021	1.9	592398	PROB	1.864	n/a	n/a	-999	1	[5, 5, 5]	15.0	FR1	4	R1083J
264.921	2.267	594298	PROB	2.236	n/a	n/a	-999	1	[5, 9, 9]	23.0	FR1	4	R1083J
267.188	2.85	596565	PROB	2.824	n/a	n/a	-999	1	[3, 9, 8]	20.0	FR1	4	R1083J
270.038	3.535	599415	PROB	3.511	n/a	n/a	-999	1	[3, 8, 5]	18.0	FR1	4	R1083J
273.573	2.623	602950	PROB	2.623	n/a	n/a	-999	1	[7, 1, 8]	16.0	FR1	4	R1083J
276.196	0.01	605573	STOP	n/a	n/a	n/a	-999	1	[-999, -999, -999]	n/a	FR1	4	R1083J
276.206	1.184	605583	DISTRACT_END	n/a	n/a	n/a	-999	1	[0, 0, 0]	n/a	FR1	4	R1083J
277.39	1.901	606767	REC_START	n/a	n/a	n/a	-999	1	[0, 0, 0]	n/a	FR1	4	R1083J
279.291	4.737	608668	REC_WORD	1.901	n/a	BLUSH	-999	1	[0, 0, 0]	n/a	FR1	4	R1083J
284.028	5.453	613405	REC_WORD	6.638	n/a	STONE	-999	1	[0, 0, 0]	n/a	FR1	4	R1083J
289.481	17.329	618858	REC_WORD	12.091	n/a	DRESS	-999	1	[0, 0, 0]	n/a	FR1	4	R1083J
306.81	0.59	636187	REC_WORD	29.42	n/a	JAR	-999	1	[0, 0, 0]	n/a	FR1	4	R1083J
307.4	1.96	636777	REC_END	n/a	n/a	n/a	-999	1	[0, 0, 0]	n/a	FR1	4	R1083J
309.36	10.0	638737	COUNTDOWN_START	n/a	n/a	n/a	-999	2	[0, 0, 0]	n/a	FR1	4	R1083J
309.361	10.427	638738	TRIAL	n/a	n/a	n/a	-999	2	[0, 0, 0]	n/a	FR1	4	R1083J
319.788	0.007	649165	COUNTDOWN_END	n/a	n/a	n/a	-999	2	[0, 0, 0]	n/a	FR1	4	R1083J
319.795	1.6	649172	ORIENT	n/a	n/a	n/a	-999	2	[0, 0, 0]	n/a	FR1	4	R1083J
322.262	1.6	651639	WORD	n/a	wordpools/wordpool_EN.txt	DESK	1	2	[0, 0, 0]	n/a	FR1	4	R1083J
324.829	1.6	654206	WORD	n/a	wordpools/wordpool_EN.txt	PEARL	2	2	[0, 0, 0]	n/a	FR1	4	R1083J
327.447	1.6	656824	WORD	n/a	wordpools/wordpool_EN.txt	DOG	3	2	[0, 0, 0]	n/a	FR1	4	R1083J
329.829	1.6	659206	WORD	n/a	wordpools/wordpool_EN.txt	KEY	4	2	[0, 0, 0]	n/a	FR1	4	R1083J
332.213	1.6	661590	WORD	n/a	wordpools/wordpool_EN.txt	JUDGE	5	2	[0, 0, 0]	n/a	FR1	4	R1083J
334.614	1.6	663991	WORD	n/a	wordpools/wordpool_EN.txt	MAZE	6	2	[0, 0, 0]	n/a	FR1	4	R1083J
337.097	1.6	666474	WORD	n/a	wordpools/wordpool_EN.txt	SHARK	7	2	[0, 0, 0]	n/a	FR1	4	R1083J
339.615	1.6	668992	WORD	n/a	wordpools/wordpool_EN.txt	RUG	8	2	[0, 0, 0]	n/a	FR1	4	R1083J
342.098	1.6	671475	WORD	n/a	wordpools/wordpool_EN.txt	BADGE	9	2	[0, 0, 0]	n/a	FR1	4	R1083J
344.681	1.6	674058	WORD	n/a	wordpools/wordpool_EN.txt	COUCH	10	2	[0, 0, 0]	n/a	FR1	4	R1083J
347.115	1.6	676492	WORD	n/a	wordpools/wordpool_EN.txt	SUN	11	2	[0, 0, 0]	n/a	FR1	4	R1083J
349.699	1.6	679076	WORD	n/a	wordpools/wordpool_EN.txt	MAIL	12	2	[0, 0, 0]	n/a	FR1	4	R1083J
351.316	0.001	680693	DISTRACT_START	n/a	n/a	n/a	-999	2	[0, 0, 0]	n/a	FR1	4	R1083J
351.317	0.016	680694	START	n/a	n/a	n/a	-999	2	[-999, -999, -999]	n/a	FR1	4	R1083J
351.333	3.55	680710	PROB	3.525	n/a	n/a	-999	2	[7, 2, 7]	16.0	FR1	4	R1083J
354.883	2.884	684260	PROB	2.839	n/a	n/a	-999	2	[6, 8, 7]	21.0	FR1	4	R1083J
357.767	1.684	687144	PROB	1.65	n/a	n/a	-999	2	[9, 1, 4]	14.0	FR1	4	R1083J
359.451	1.733	688828	PROB	1.702	n/a	n/a	-999	2	[1, 9, 4]	14.0	FR1	4	R1083J
361.184	2.384	690560	PROB	2.362	n/a	n/a	-999	2	[6, 4, 9]	19.0	FR1	4	R1083J
363.568	2.549	692944	PROB	2.521	n/a	n/a	-999	2	[6, 7, 2]	15.0	FR1	4	R1083J
366.117	2.901	695493	PROB	2.868	n/a	n/a	-999	2	[6, 2, 3]	11.0	FR1	4	R1083J
369.018	2.05	698394	PROB	2.015	n/a	n/a	-999	2	[3, 6, 3]	12.0	FR1	4	R1083J
371.068	3.821	700444	PROB	3.821	n/a	n/a	-999	2	[2, 3, 3]	8.0	FR1	4	R1083J
374.889	0.013	704265	STOP	n/a	n/a	n/a	-999	2	[-999, -999, -999]	n/a	FR1	4	R1083J
374.902	1.101	704278	DISTRACT_END	n/a	n/a	n/a	-999	2	[0, 0, 0]	n/a	FR1	4	R1083J
376.003	1.759	705379	REC_START	n/a	n/a	n/a	-999	2	[0, 0, 0]	n/a	FR1	4	R1083J
377.762	4.03	707138	REC_WORD	1.759	n/a	COUCH	-999	2	[0, 0, 0]	n/a	FR1	4	R1083J
381.792	4.121	711168	REC_WORD	5.789	n/a	BUG	-999	2	[0, 0, 0]	n/a	FR1	4	R1083J
385.913	6.039	715289	REC_WORD	9.91	n/a	DESK	-999	2	[0, 0, 0]	n/a	FR1	4	R1083J
391.952	2.001	721328	REC_WORD	15.949	n/a	LETTER	-999	2	[0, 0, 0]	n/a	FR1	4	R1083J
393.953	3.592	723329	REC_WORD	17.95	n/a	DOG	-999	2	[0, 0, 0]	n/a	FR1	4	R1083J
397.545	8.468	726921	REC_WORD	21.542	n/a	TREAT	-999	2	[0, 0, 0]	n/a	FR1	4	R1083J
406.013	1.993	735389	REC_END	n/a	n/a	n/a	-999	2	[0, 0, 0]	n/a	FR1	4	R1083J
408.006	10.0	737382	COUNTDOWN_START	n/a	n/a	n/a	-999	3	[0, 0, 0]	n/a	FR1	4	R1083J
408.007	10.427	737383	TRIAL	n/a	n/a	n/a	-999	3	[0, 0, 0]	n/a	FR1	4	R1083J
418.434	0.008	747810	COUNTDOWN_END	n/a	n/a	n/a	-999	3	[0, 0, 0]	n/a	FR1	4	R1083J
418.442	1.6	747818	ORIENT	n/a	n/a	n/a	-999	3	[0, 0, 0]	n/a	FR1	4	R1083J
420.908	1.6	750284	WORD	n/a	wordpools/wordpool_EN.txt	CAPE	1	3	[0, 0, 0]	n/a	FR1	4	R1083J
423.358	1.6	752734	WORD	n/a	wordpools/wordpool_EN.txt	FLOOR	2	3	[0, 0, 0]	n/a	FR1	4	R1083J
425.775	1.6	755151	WORD	n/a	wordpools/wordpool_EN.txt	ROCK	3	3	[0, 0, 0]	n/a	FR1	4	R1083J
428.209	1.6	757585	WORD	n/a	wordpools/wordpool_EN.txt	EEL	4	3	[0, 0, 0]	n/a	FR1	4	R1083J
430.644	1.6	760020	WORD	n/a	wordpools/wordpool_EN.txt	NEST	5	3	[0, 0, 0]	n/a	FR1	4	R1083J
433.043	1.6	762419	WORD	n/a	wordpools/wordpool_EN.txt	MOTH	6	3	[0, 0, 0]	n/a	FR1	4	R1083J
435.544	1.6	764920	WORD	n/a	wordpools/wordpool_EN.txt	WING	7	3	[0, 0, 0]	n/a	FR1	4	R1083J
438.093	1.6	767469	WORD	n/a	wordpools/wordpool_EN.txt	ROOM	8	3	[0, 0, 0]	n/a	FR1	4	R1083J
440.694	1.6	770070	WORD	n/a	wordpools/wordpool_EN.txt	BEACH	9	3	[0, 0, 0]	n/a	FR1	4	R1083J
443.077	1.6	772453	WORD	n/a	wordpools/wordpool_EN.txt	WHEEL	10	3	[0, 0, 0]	n/a	FR1	4	R1083J
445.595	1.6	774971	WORD	n/a	wordpools/wordpool_EN.txt	RAIN	11	3	[0, 0, 0]	n/a	FR1	4	R1083J
448.228	1.6	777604	WORD	n/a	wordpools/wordpool_EN.txt	GRASS	12	3	[0, 0, 0]	n/a	FR1	4	R1083J
449.844	0.001	779220	DISTRACT_START	n/a	n/a	n/a	-999	3	[0, 0, 0]	n/a	FR1	4	R1083J
449.845	0.016	779221	START	n/a	n/a	n/a	-999	3	[-999, -999, -999]	n/a	FR1	4	R1083J
449.861	3.434	779237	PROB	3.4	n/a	n/a	-999	3	[7, 1, 5]	13.0	FR1	4	R1083J
453.295	2.201	782671	PROB	2.175	n/a	n/a	-999	3	[6, 6, 1]	13.0	FR1	4	R1083J
455.496	4.383	784872	PROB	4.349	n/a	n/a	-999	3	[9, 2, 8]	17.0	FR1	4	R1083J
459.879	2.669	789255	PROB	2.639	n/a	n/a	-999	3	[2, 3, 5]	10.0	FR1	4	R1083J
462.548	2.1	791924	PROB	2.066	n/a	n/a	-999	3	[1, 6, 1]	8.0	FR1	4	R1083J
464.648	3.783	794024	PROB	3.749	n/a	n/a	-999	3	[8, 8, 2]	18.0	FR1	4	R1083J
468.431	4.79	797807	PROB	4.79	n/a	n/a	-999	3	[2, 7, 3]	12.0	FR1	4	R1083J
473.221	0.01	802597	STOP	n/a	n/a	n/a	-999	3	[-999, -999, -999]	n/a	FR1	4	R1083J
473.231	1.151	802607	DISTRACT_END	n/a	n/a	n/a	-999	3	[0, 0, 0]	n/a	FR1	4	R1083J
474.382	1.579	803758	REC_START	n/a	n/a	n/a	-999	3	[0, 0, 0]	n/a	FR1	4	R1083J
475.961	5.142	805337	REC_WORD	1.579	n/a	BEACH	-999	3	[0, 0, 0]	n/a	FR1	4	R1083J
481.103	2.829	810479	REC_WORD	6.721	n/a	WAGON	-999	3	[0, 0, 0]	n/a	FR1	4	R1083J
483.932	7.547	813308	REC_WORD	9.55	n/a	EEL	-999	3	[0, 0, 0]	n/a	FR1	4	R1083J
491.479	3.418	820855	REC_WORD	17.097	n/a	STRING	-999	3	[0, 0, 0]	n/a	FR1	4	R1083J
494.897	9.494	824273	REC_WORD	20.515	n/a	NET	-999	3	[0, 0, 0]	n/a	FR1	4	R1083J
504.391	2.045	833767	REC_END	n/a	n/a	n/a	-999	3	[0, 0, 0]	n/a	FR1	4	R1083J
506.436	10.0	835812	COUNTDOWN_START	n/a	n/a	n/a	-999	4	[0, 0, 0]	n/a	FR1	4	R1083J
506.437	10.427	835813	TRIAL	n/a	n/a	n/a	-999	4	[0, 0, 0]	n/a	FR1	4	R1083J
516.864	0.006	846240	COUNTDOWN_END	n/a	n/a	n/a	-999	4	[0, 0, 0]	n/a	FR1	4	R1083J
516.87	1.6	846246	ORIENT	n/a	n/a	n/a	-999	4	[0, 0, 0]	n/a	FR1	4	R1083J
519.303	1.6	848679	WORD	n/a	wordpools/wordpool_EN.txt	DOCK	1	4	[0, 0, 0]	n/a	FR1	4	R1083J
521.737	1.6	851113	WORD	n/a	wordpools/wordpool_EN.txt	FOAM	2	4	[0, 0, 0]	n/a	FR1	4	R1083J
524.154	1.6	853530	WORD	n/a	wordpools/wordpool_EN.txt	DRESS	3	4	[0, 0, 0]	n/a	FR1	4	R1083J
526.639	1.6	856015	WORD	n/a	wordpools/wordpool_EN.txt	HOLE	4	4	[0, 0, 0]	n/a	FR1	4	R1083J
529.088	1.6	858464	WORD	n/a	wordpools/wordpool_EN.txt	SALT	5	4	[0, 0, 0]	n/a	FR1	4	R1083J
531.689	1.6	861065	WORD	n/a	wordpools/wordpool_EN.txt	JAR	6	4	[0, 0, 0]	n/a	FR1	4	R1083J
534.089	1.6	863465	WORD	n/a	wordpools/wordpool_EN.txt	ROSE	7	4	[0, 0, 0]	n/a	FR1	4	R1083J
536.672	1.6	866048	WORD	n/a	wordpools/wordpool_EN.txt	BEAK	8	4	[0, 0, 0]	n/a	FR1	4	R1083J
539.239	1.6	868615	WORD	n/a	wordpools/wordpool_EN.txt	SPOON	9	4	[0, 0, 0]	n/a	FR1	4	R1083J
541.707	1.6	871083	WORD	n/a	wordpools/wordpool_EN.txt	SINK	10	4	[0, 0, 0]	n/a	FR1	4	R1083J
544.323	1.6	873699	WORD	n/a	wordpools/wordpool_EN.txt	BATH	11	4	[0, 0, 0]	n/a	FR1	4	R1083J
546.924	1.6	876300	WORD	n/a	wordpools/wordpool_EN.txt	THREAD	12	4	[0, 0, 0]	n/a	FR1	4	R1083J
548.542	0.001	877918	DISTRACT_START	n/a	n/a	n/a	-999	4	[0, 0, 0]	n/a	FR1	4	R1083J
548.543	0.015	877919	START	n/a	n/a	n/a	-999	4	[-999, -999, -999]	n/a	FR1	4	R1083J
548.558	4.683	877934	PROB	4.659	n/a	n/a	-999	4	[8, 7, 4]	19.0	FR1	4	R1083J
553.241	2.201	882617	PROB	2.176	n/a	n/a	-999	4	[8, 6, 8]	22.0	FR1	4	R1083J
555.442	1.933	884818	PROB	1.903	n/a	n/a	-999	4	[5, 4, 3]	12.0	FR1	4	R1083J
557.375	2.55	886751	PROB	2.53	n/a	n/a	-999	4	[9, 9, 4]	22.0	FR1	4	R1083J
559.925	2.384	889301	PROB	2.348	n/a	n/a	-999	4	[2, 5, 7]	14.0	FR1	4	R1083J
562.309	2.334	891685	PROB	2.301	n/a	n/a	-999	4	[8, 5, 9]	22.0	FR1	4	R1083J
564.643	3.433	894019	PROB	3.406	n/a	n/a	-999	4	[8, 7, 5]	18.0	FR1	4	R1083J
568.076	3.518	897452	PROB	3.518	n/a	n/a	-999	4	[5, 1, 4]	10.0	FR1	4	R1083J
571.594	0.017	900970	STOP	n/a	n/a	n/a	-999	4	[-999, -999, -999]	n/a	FR1	4	R1083J
571.611	1.133	900987	DISTRACT_END	n/a	n/a	n/a	-999	4	[0, 0, 0]	n/a	FR1	4	R1083J
572.744	3.501	902120	REC_START	n/a	n/a	n/a	-999	4	[0, 0, 0]	n/a	FR1	4	R1083J
576.245	6.559	905621	REC_WORD	3.501	n/a	BEACH	-999	4	[0, 0, 0]	n/a	FR1	4	R1083J
582.804	3.698	912180	REC_WORD	10.06	n/a	LOG	-999	4	[0, 0, 0]	n/a	FR1	4	R1083J
586.502	4.419	915878	REC_WORD	13.758	n/a	SAND	-999	4	[0, 0, 0]	n/a	FR1	4	R1083J
590.921	11.833	920297	REC_WORD	18.177	n/a	TEST	-999	4	[0, 0, 0]	n/a	FR1	4	R1083J
602.754	1.761	932130	REC_END	n/a	n/a	n/a	-999	4	[0, 0, 0]	n/a	FR1	4	R1083J
604.515	10.0	933891	COUNTDOWN_START	n/a	n/a	n/a	-999	5	[0, 0, 0]	n/a	FR1	4	R1083J
604.516	10.427	933892	TRIAL	n/a	n/a	n/a	-999	5	[0, 0, 0]	n/a	FR1	4	R1083J
614.943	0.006	944319	COUNTDOWN_END	n/a	n/a	n/a	-999	5	[0, 0, 0]	n/a	FR1	4	R1083J
614.949	1.6	944325	ORIENT	n/a	n/a	n/a	-999	5	[0, 0, 0]	n/a	FR1	4	R1083J
617.484	1.6	946859	WORD	n/a	wordpools/wordpool_EN.txt	SLEEVE	1	5	[0, 0, 0]	n/a	FR1	4	R1083J
619.866	1.6	949241	WORD	n/a	wordpools/wordpool_EN.txt	TIE	2	5	[0, 0, 0]	n/a	FR1	4	R1083J
622.35	1.6	951725	WORD	n/a	wordpools/wordpool_EN.txt	HOSE	3	5	[0, 0, 0]	n/a	FR1	4	R1083J
624.833	1.6	954208	WORD	n/a	wordpools/wordpool_EN.txt	CANE	4	5	[0, 0, 0]	n/a	FR1	4	R1083J
627.334	1.6	956709	WORD	n/a	wordpools/wordpool_EN.txt	TRAY	5	5	[0, 0, 0]	n/a	FR1	4	R1083J
629.951	1.6	959326	WORD	n/a	wordpools/wordpool_EN.txt	FARM	6	5	[0, 0, 0]	n/a	FR1	4	R1083J
632.452	1.6	961827	WORD	n/a	wordpools/wordpool_EN.txt	WEED	7	5	[0, 0, 0]	n/a	FR1	4	R1083J
634.885	1.6	964260	WORD	n/a	wordpools/wordpool_EN.txt	CAKE	8	5	[0, 0, 0]	n/a	FR1	4	R1083J
637.318	1.6	966693	WORD	n/a	wordpools/wordpool_EN.txt	STICK	9	5	[0, 0, 0]	n/a	FR1	4	R1083J
639.702	1.6	969077	WORD	n/a	wordpools/wordpool_EN.txt	SEAL	10	5	[0, 0, 0]	n/a	FR1	4	R1083J
642.119	1.6	971494	WORD	n/a	wordpools/wordpool_EN.txt	LAMB	11	5	[0, 0, 0]	n/a	FR1	4	R1083J
644.537	1.6	973912	WORD	n/a	wordpools/wordpool_EN.txt	POOL	12	5	[0, 0, 0]	n/a	FR1	4	R1083J
646.153	0.001	975528	DISTRACT_START	n/a	n/a	n/a	-999	5	[0, 0, 0]	n/a	FR1	4	R1083J
646.154	0.016	975529	START	n/a	n/a	n/a	-999	5	[-999, -999, -999]	n/a	FR1	4	R1083J
646.17	2.617	975545	PROB	2.595	n/a	n/a	-999	5	[1, 5, 5]	11.0	FR1	4	R1083J
648.787	2.9	978162	PROB	2.875	n/a	n/a	-999	5	[4, 2, 6]	12.0	FR1	4	R1083J
651.687	2.434	981062	PROB	2.406	n/a	n/a	-999	5	[4, 3, 2]	9.0	FR1	4	R1083J
654.121	2.6	983496	PROB	2.564	n/a	n/a	-999	5	[3, 8, 1]	12.0	FR1	4	R1083J
656.721	2.651	986096	PROB	2.628	n/a	n/a	-999	5	[1, 6, 3]	10.0	FR1	4	R1083J
659.372	2.517	988747	PROB	2.489	n/a	n/a	-999	5	[6, 3, 2]	11.0	FR1	4	R1083J
661.889	1.567	991264	PROB	1.532	n/a	n/a	-999	5	[6, 4, 2]	12.0	FR1	4	R1083J
663.456	1.616	992831	PROB	1.589	n/a	n/a	-999	5	[3, 2, 6]	11.0	FR1	4	R1083J
665.072	2.165	994447	PROB	2.165	n/a	n/a	-999	5	[5, 9, 4]	18.0	FR1	4	R1083J
667.237	0.019	996612	STOP	n/a	n/a	n/a	-999	5	[-999, -999, -999]	n/a	FR1	4	R1083J
667.256	1.117	996631	DISTRACT_END	n/a	n/a	n/a	-999	5	[0, 0, 0]	n/a	FR1	4	R1083J
668.373	1.741	997748	REC_START	n/a	n/a	n/a	-999	5	[0, 0, 0]	n/a	FR1	4	R1083J
670.114	6.197	999489	REC_WORD	1.741	n/a	LAMB	-999	5	[0, 0, 0]	n/a	FR1	4	R1083J
676.311	3.061	1005686	REC_WORD	7.938	n/a	SIDE	-999	5	[0, 0, 0]	n/a	FR1	4	R1083J
679.372	3.831	1008747	REC_WORD	10.999	n/a	BEACH	-999	5	[0, 0, 0]	n/a	FR1	4	R1083J
683.203	14.11	1012578	REC_WORD	14.83	n/a	SAND	-999	5	[0, 0, 0]	n/a	FR1	4	R1083J
697.313	1.074	1026688	REC_WORD	28.94	n/a	BASE	-999	5	[0, 0, 0]	n/a	FR1	4	R1083J
698.387	2.44	1027762	REC_END	n/a	n/a	n/a	-999	5	[0, 0, 0]	n/a	FR1	4	R1083J
700.827	0.0	1030202	TRIAL	n/a	n/a	n/a	-999	6	[0, 0, 0]	n/a	FR1	4	R1083J
700.827	10.0	1030202	COUNTDOWN_START	n/a	n/a	n/a	-999	6	[0, 0, 0]	n/a	FR1	4	R1083J
711.255	0.007	1040630	COUNTDOWN_END	n/a	n/a	n/a	-999	6	[0, 0, 0]	n/a	FR1	4	R1083J
711.262	1.6	1040637	ORIENT	n/a	n/a	n/a	-999	6	[0, 0, 0]	n/a	FR1	4	R1083J
713.862	1.6	1043237	WORD	n/a	wordpools/wordpool_EN.txt	FOOD	1	6	[0, 0, 0]	n/a	FR1	4	R1083J
716.379	1.6	1045754	WORD	n/a	wordpools/wordpool_EN.txt	BRICK	2	6	[0, 0, 0]	n/a	FR1	4	R1083J
718.813	1.6	1048188	WORD	n/a	wordpools/wordpool_EN.txt	PRINCE	3	6	[0, 0, 0]	n/a	FR1	4	R1083J
721.296	1.6	1050671	WORD	n/a	wordpools/wordpool_EN.txt	WALL	4	6	[0, 0, 0]	n/a	FR1	4	R1083J
723.763	1.6	1053138	WORD	n/a	wordpools/wordpool_EN.txt	SHIELD	5	6	[0, 0, 0]	n/a	FR1	4	R1083J
726.38	1.6	1055755	WORD	n/a	wordpools/wordpool_EN.txt	PIE	6	6	[0, 0, 0]	n/a	FR1	4	R1083J
728.964	1.6	1058339	WORD	n/a	wordpools/wordpool_EN.txt	FRUIT	7	6	[0, 0, 0]	n/a	FR1	4	R1083J
731.381	1.6	1060756	WORD	n/a	wordpools/wordpool_EN.txt	CLAY	8	6	[0, 0, 0]	n/a	FR1	4	R1083J
733.948	1.6	1063323	WORD	n/a	wordpools/wordpool_EN.txt	SHELL	9	6	[0, 0, 0]	n/a	FR1	4	R1083J
736.381	1.6	1065756	WORD	n/a	wordpools/wordpool_EN.txt	SPEAR	10	6	[0, 0, 0]	n/a	FR1	4	R1083J
738.782	1.6	1068157	WORD	n/a	wordpools/wordpool_EN.txt	CLOTH	11	6	[0, 0, 0]	n/a	FR1	4	R1083J
741.232	1.6	1070607	WORD	n/a	wordpools/wordpool_EN.txt	FROG	12	6	[0, 0, 0]	n/a	FR1	4	R1083J
742.849	0.0	1072224	DISTRACT_START	n/a	n/a	n/a	-999	6	[0, 0, 0]	n/a	FR1	4	R1083J
742.849	0.016	1072224	START	n/a	n/a	n/a	-999	6	[-999, -999, -999]	n/a	FR1	4	R1083J
742.865	2.951	1072240	PROB	2.921	n/a	n/a	-999	6	[3, 6, 5]	14.0	FR1	4	R1083J
745.816	3.217	1075191	PROB	3.194	n/a	n/a	-999	6	[9, 5, 7]	21.0	FR1	4	R1083J
749.033	3.117	1078408	PROB	3.089	n/a	n/a	-999	6	[7, 7, 6]	20.0	FR1	4	R1083J
752.15	4.184	1081525	PROB	4.163	n/a	n/a	-999	6	[6, 9, 9]	24.0	FR1	4	R1083J
756.334	3.084	1085709	PROB	3.051	n/a	n/a	-999	6	[3, 3, 9]	15.0	FR1	4	R1083J
759.418	3.034	1088793	PROB	3.007	n/a	n/a	-999	6	[1, 6, 9]	16.0	FR1	4	R1083J
762.452	2.517	1091827	PROB	2.517	n/a	n/a	-999	6	[6, 4, 4]	14.0	FR1	4	R1083J
764.969	0.016	1094344	STOP	n/a	n/a	n/a	-999	6	[-999, -999, -999]	n/a	FR1	4	R1083J
764.985	1.168	1094360	DISTRACT_END	n/a	n/a	n/a	-999	6	[0, 0, 0]	n/a	FR1	4	R1083J
766.153	2.028	1095528	REC_START	n/a	n/a	n/a	-999	6	[0, 0, 0]	n/a	FR1	4	R1083J
768.181	3.354	1097556	REC_WORD	2.028	n/a	BRICK	-999	6	[0, 0, 0]	n/a	FR1	4	R1083J
771.535	3.291	1100910	REC_WORD	5.382	n/a	FIG	-999	6	[0, 0, 0]	n/a	FR1	4	R1083J
774.826	6.743	1104201	REC_WORD	8.673	n/a	DISH	-999	6	[0, 0, 0]	n/a	FR1	4	R1083J
781.569	4.938	1110944	REC_WORD	15.416	n/a	CUP	-999	6	[0, 0, 0]	n/a	FR1	4	R1083J
786.507	3.305	1115882	REC_WORD	20.354	n/a	CREEK	-999	6	[0, 0, 0]	n/a	FR1	4	R1083J
789.812	6.351	1119187	REC_WORD	23.659	n/a	CLOTH	-999	6	[0, 0, 0]	n/a	FR1	4	R1083J
796.163	2.026	1125538	REC_END	n/a	n/a	n/a	-999	6	[0, 0, 0]	n/a	FR1	4	R1083J
798.189	10.0	1127564	COUNTDOWN_START	n/a	n/a	n/a	-999	7	[0, 0, 0]	n/a	FR1	4	R1083J
798.19	10.427	1127565	TRIAL	n/a	n/a	n/a	-999	7	[0, 0, 0]	n/a	FR1	4	R1083J
808.617	0.008	1137992	COUNTDOWN_END	n/a	n/a	n/a	-999	7	[0, 0, 0]	n/a	FR1	4	R1083J
808.625	1.6	1138000	ORIENT	n/a	n/a	n/a	-999	7	[0, 0, 0]	n/a	FR1	4	R1083J
811.224	1.6	1140599	WORD	n/a	wordpools/wordpool_EN.txt	SNOW	1	7	[0, 0, 0]	n/a	FR1	4	R1083J
813.609	1.6	1142984	WORD	n/a	wordpools/wordpool_EN.txt	BLOOM	2	7	[0, 0, 0]	n/a	FR1	4	R1083J
816.075	1.6	1145450	WORD	n/a	wordpools/wordpool_EN.txt	FLAME	3	7	[0, 0, 0]	n/a	FR1	4	R1083J
818.692	1.6	1148067	WORD	n/a	wordpools/wordpool_EN.txt	FOG	4	7	[0, 0, 0]	n/a	FR1	4	R1083J
821.259	1.6	1150634	WORD	n/a	wordpools/wordpool_EN.txt	CLOUD	5	7	[0, 0, 0]	n/a	FR1	4	R1083J
823.644	1.6	1153019	WORD	n/a	wordpools/wordpool_EN.txt	PIT	6	7	[0, 0, 0]	n/a	FR1	4	R1083J
826.227	1.6	1155602	WORD	n/a	wordpools/wordpool_EN.txt	POND	7	7	[0, 0, 0]	n/a	FR1	4	R1083J
828.777	1.6	1158152	WORD	n/a	wordpools/wordpool_EN.txt	CROW	8	7	[0, 0, 0]	n/a	FR1	4	R1083J
831.161	1.6	1160536	WORD	n/a	wordpools/wordpool_EN.txt	LAKE	9	7	[0, 0, 0]	n/a	FR1	4	R1083J
833.578	1.6	1162953	WORD	n/a	wordpools/wordpool_EN.txt	MAT	10	7	[0, 0, 0]	n/a	FR1	4	R1083J
836.044	1.6	1165419	WORD	n/a	wordpools/wordpool_EN.txt	CUBE	11	7	[0, 0, 0]	n/a	FR1	4	R1083J
838.579	1.6	1167954	WORD	n/a	wordpools/wordpool_EN.txt	JEEP	12	7	[0, 0, 0]	n/a	FR1	4	R1083J
840.195	0.001	1169570	DISTRACT_START	n/a	n/a	n/a	-999	7	[0, 0, 0]	n/a	FR1	4	R1083J
840.196	0.016	1169571	START	n/a	n/a	n/a	-999	7	[-999, -999, -999]	n/a	FR1	4	R1083J
840.212	4.667	1169587	PROB	4.634	n/a	n/a	-999	7	[9, 3, 6]	18.0	FR1	4	R1083J
844.879	2.033	1174254	PROB	1.998	n/a	n/a	-999	7	[4, 7, 1]	12.0	FR1	4	R1083J
846.912	2.951	1176287	PROB	2.926	n/a	n/a	-999	7	[2, 9, 4]	15.0	FR1	4	R1083J
849.863	3.233	1179238	PROB	3.198	n/a	n/a	-999	7	[5, 6, 5]	16.0	FR1	4	R1083J
853.096	1.834	1182471	PROB	1.813	n/a	n/a	-999	7	[5, 5, 2]	12.0	FR1	4	R1083J
854.93	2.15	1184305	PROB	2.116	n/a	n/a	-999	7	[6, 2, 4]	12.0	FR1	4	R1083J
857.08	2.934	1186455	PROB	2.901	n/a	n/a	-999	7	[1, 2, 8]	11.0	FR1	4	R1083J
860.014	2.127	1189389	PROB	2.127	n/a	n/a	-999	7	[3, 5, 6]	14.0	FR1	4	R1083J
862.141	0.007	1191516	STOP	n/a	n/a	n/a	-999	7	[-999, -999, -999]	n/a	FR1	4	R1083J
862.148	1.217	1191523	DISTRACT_END	n/a	n/a	n/a	-999	7	[0, 0, 0]	n/a	FR1	4	R1083J
863.365	7.938	1192740	REC_START	n/a	n/a	n/a	-999	7	[0, 0, 0]	n/a	FR1	4	R1083J
871.303	0.805	1200678	REC_WORD_VV	7.938	n/a	<>	-999	7	[0, 0, 0]	n/a	FR1	4	R1083J
872.108	3.686	1201483	REC_WORD_VV	8.743	n/a	<>	-999	7	[0, 0, 0]	n/a	FR1	4	R1083J
875.794	4.66	1205168	REC_WORD	12.429	n/a	BASKET	-999	7	[0, 0, 0]	n/a	FR1	4	R1083J
880.454	6.565	1209828	REC_WORD	17.089	n/a	TRIM	-999	7	[0, 0, 0]	n/a	FR1	4	R1083J
887.019	6.356	1216393	REC_WORD	23.654	n/a	SHELF	-999	7	[0, 0, 0]	n/a	FR1	4	R1083J
893.375	1.944	1222749	REC_END	n/a	n/a	n/a	-999	7	[0, 0, 0]	n/a	FR1	4	R1083J
895.319	0.0	1224693	TRIAL	n/a	n/a	n/a	-999	8	[0, 0, 0]	n/a	FR1	4	R1083J
895.319	10.0	1224693	COUNTDOWN_START	n/a	n/a	n/a	-999	8	[0, 0, 0]	n/a	FR1	4	R1083J
905.747	0.006	1235121	COUNTDOWN_END	n/a	n/a	n/a	-999	8	[0, 0, 0]	n/a	FR1	4	R1083J
905.753	1.6	1235127	ORIENT	n/a	n/a	n/a	-999	8	[0, 0, 0]	n/a	FR1	4	R1083J
908.32	1.6	1237694	WORD	n/a	wordpools/wordpool_EN.txt	CAVE	1	8	[0, 0, 0]	n/a	FR1	4	R1083J
910.921	1.6	1240295	WORD	n/a	wordpools/wordpool_EN.txt	STAIR	2	8	[0, 0, 0]	n/a	FR1	4	R1083J
913.472	1.6	1242846	WORD	n/a	wordpools/wordpool_EN.txt	SWAMP	3	8	[0, 0, 0]	n/a	FR1	4	R1083J
915.905	1.6	1245279	WORD	n/a	wordpools/wordpool_EN.txt	WOOD	4	8	[0, 0, 0]	n/a	FR1	4	R1083J
918.371	1.6	1247745	WORD	n/a	wordpools/wordpool_EN.txt	CRANE	5	8	[0, 0, 0]	n/a	FR1	4	R1083J
920.872	1.6	1250246	WORD	n/a	wordpools/wordpool_EN.txt	RAKE	6	8	[0, 0, 0]	n/a	FR1	4	R1083J
923.372	1.6	1252746	WORD	n/a	wordpools/wordpool_EN.txt	HAWK	7	8	[0, 0, 0]	n/a	FR1	4	R1083J
925.872	1.6	1255246	WORD	n/a	wordpools/wordpool_EN.txt	PIPE	8	8	[0, 0, 0]	n/a	FR1	4	R1083J
928.406	1.6	1257780	WORD	n/a	wordpools/wordpool_EN.txt	HORSE	9	8	[0, 0, 0]	n/a	FR1	4	R1083J
930.807	1.6	1260181	WORD	n/a	wordpools/wordpool_EN.txt	TREE	10	8	[0, 0, 0]	n/a	FR1	4	R1083J
933.29	1.6	1262664	WORD	n/a	wordpools/wordpool_EN.txt	DART	11	8	[0, 0, 0]	n/a	FR1	4	R1083J
935.79	1.6	1265164	WORD	n/a	wordpools/wordpool_EN.txt	BOX	12	8	[0, 0, 0]	n/a	FR1	4	R1083J
937.407	0.001	1266781	DISTRACT_START	n/a	n/a	n/a	-999	8	[0, 0, 0]	n/a	FR1	4	R1083J
937.408	0.016	1266782	START	n/a	n/a	n/a	-999	8	[-999, -999, -999]	n/a	FR1	4	R1083J
937.424	4.584	1266798	PROB	4.562	n/a	n/a	-999	8	[3, 9, 7]	19.0	FR1	4	R1083J
942.008	4.067	1271382	PROB	4.042	n/a	n/a	-999	8	[5, 2, 6]	13.0	FR1	4	R1083J
946.075	3.051	1275449	PROB	3.031	n/a	n/a	-999	8	[2, 6, 2]	10.0	FR1	4	R1083J
949.126	3.683	1278500	PROB	3.659	n/a	n/a	-999	8	[2, 7, 9]	19.0	FR1	4	R1083J
952.809	3.084	1282183	PROB	3.057	n/a	n/a	-999	8	[1, 5, 7]	13.0	FR1	4	R1083J
955.893	2.101	1285267	PROB	2.101	n/a	n/a	-999	8	[8, 7, 1]	16.0	FR1	4	R1083J
957.994	0.016	1287368	STOP	n/a	n/a	n/a	-999	8	[-999, -999, -999]	n/a	FR1	4	R1083J
958.01	1.168	1287384	DISTRACT_END	n/a	n/a	n/a	-999	8	[0, 0, 0]	n/a	FR1	4	R1083J
959.178	2.239	1288552	REC_START	n/a	n/a	n/a	-999	8	[0, 0, 0]	n/a	FR1	4	R1083J
961.417	2.334	1290791	REC_WORD	2.239	n/a	TREE	-999	8	[0, 0, 0]	n/a	FR1	4	R1083J
963.751	2.778	1293125	REC_WORD	4.573	n/a	ARM	-999	8	[0, 0, 0]	n/a	FR1	4	R1083J
966.529	3.945	1295903	REC_WORD	7.351	n/a	FROG	-999	8	[0, 0, 0]	n/a	FR1	4	R1083J
970.474	3.339	1299848	REC_WORD	11.296	n/a	FRAME	-999	8	[0, 0, 0]	n/a	FR1	4	R1083J
973.813	3.327	1303187	REC_WORD	14.635	n/a	STAIR	-999	8	[0, 0, 0]	n/a	FR1	4	R1083J
977.14	6.99	1306514	REC_WORD	17.962	n/a	CUBE	-999	8	[0, 0, 0]	n/a	FR1	4	R1083J
984.13	2.551	1313504	REC_WORD	24.952	n/a	PEN	-999	8	[0, 0, 0]	n/a	FR1	4	R1083J
986.681	2.504	1316055	REC_WORD_VV	27.503	n/a	<>	-999	8	[0, 0, 0]	n/a	FR1	4	R1083J
989.185	2.963	1318559	REC_END	n/a	n/a	n/a	-999	8	[0, 0, 0]	n/a	FR1	4	R1083J
992.148	0.0	1321522	TRIAL	n/a	n/a	n/a	-999	9	[0, 0, 0]	n/a	FR1	4	R1083J
992.148	10.0	1321522	COUNTDOWN_START	n/a	n/a	n/a	-999	9	[0, 0, 0]	n/a	FR1	4	R1083J
1002.576	0.008	1331950	COUNTDOWN_END	n/a	n/a	n/a	-999	9	[0, 0, 0]	n/a	FR1	4	R1083J
1002.584	1.6	1331958	ORIENT	n/a	n/a	n/a	-999	9	[0, 0, 0]	n/a	FR1	4	R1083J
1004.983	1.6	1334357	WORD	n/a	wordpools/wordpool_EN.txt	BAG	1	9	[0, 0, 0]	n/a	FR1	4	R1083J
1007.534	1.6	1336908	WORD	n/a	wordpools/wordpool_EN.txt	GOAT	2	9	[0, 0, 0]	n/a	FR1	4	R1083J
1010.05	1.6	1339424	WORD	n/a	wordpools/wordpool_EN.txt	YARD	3	9	[0, 0, 0]	n/a	FR1	4	R1083J
1012.501	1.6	1341875	WORD	n/a	wordpools/wordpool_EN.txt	SNAIL	4	9	[0, 0, 0]	n/a	FR1	4	R1083J
1014.951	1.6	1344325	WORD	n/a	wordpools/wordpool_EN.txt	SHOE	5	9	[0, 0, 0]	n/a	FR1	4	R1083J
1017.486	1.6	1346860	WORD	n/a	wordpools/wordpool_EN.txt	FLEA	6	9	[0, 0, 0]	n/a	FR1	4	R1083J
1019.935	1.6	1349309	WORD	n/a	wordpools/wordpool_EN.txt	DRUM	7	9	[0, 0, 0]	n/a	FR1	4	R1083J
1022.436	1.6	1351810	WORD	n/a	wordpools/wordpool_EN.txt	GLASS	8	9	[0, 0, 0]	n/a	FR1	4	R1083J
1024.902	1.6	1354276	WORD	n/a	wordpools/wordpool_EN.txt	NOSE	9	9	[0, 0, 0]	n/a	FR1	4	R1083J
1027.47	1.6	1356844	WORD	n/a	wordpools/wordpool_EN.txt	WEB	10	9	[0, 0, 0]	n/a	FR1	4	R1083J
1029.936	1.6	1359310	WORD	n/a	wordpools/wordpool_EN.txt	WORLD	11	9	[0, 0, 0]	n/a	FR1	4	R1083J
1032.42	1.6	1361794	WORD	n/a	wordpools/wordpool_EN.txt	PEN	12	9	[0, 0, 0]	n/a	FR1	4	R1083J
1034.036	0.001	1363410	DISTRACT_START	n/a	n/a	n/a	-999	9	[0, 0, 0]	n/a	FR1	4	R1083J
1034.037	0.016	1363411	START	n/a	n/a	n/a	-999	9	[-999, -999, -999]	n/a	FR1	4	R1083J
1034.053	3.884	1363427	PROB	3.849	n/a	n/a	-999	9	[3, 8, 4]	15.0	FR1	4	R1083J
1037.937	4.75	1367311	PROB	4.718	n/a	n/a	-999	9	[7, 7, 3]	17.0	FR1	4	R1083J
1042.687	2.668	1372061	PROB	2.647	n/a	n/a	-999	9	[1, 8, 1]	10.0	FR1	4	R1083J
1045.355	2.55	1374729	PROB	2.515	n/a	n/a	-999	9	[4, 7, 8]	19.0	FR1	4	R1083J
1047.905	2.8	1377279	PROB	2.773	n/a	n/a	-999	9	[6, 8, 3]	17.0	FR1	4	R1083J
1050.705	5.14	1380079	PROB	5.14	n/a	n/a	-999	9	[5, 3, 3]	11.0	FR1	4	R1083J
1055.845	0.011	1385219	STOP	n/a	n/a	n/a	-999	9	[-999, -999, -999]	n/a	FR1	4	R1083J
1055.856	1.067	1385230	DISTRACT_END	n/a	n/a	n/a	-999	9	[0, 0, 0]	n/a	FR1	4	R1083J
1056.923	1.757	1386297	REC_START	n/a	n/a	n/a	-999	9	[0, 0, 0]	n/a	FR1	4	R1083J
1058.68	2.405	1388054	REC_WORD	1.757	n/a	WEB	-999	9	[0, 0, 0]	n/a	FR1	4	R1083J
1061.085	2.43	1390459	REC_WORD	4.162	n/a	WORLD	-999	9	[0, 0, 0]	n/a	FR1	4	R1083J
1063.515	5.114	1392889	REC_WORD	6.592	n/a	NEW	-999	9	[0, 0, 0]	n/a	FR1	4	R1083J
1068.629	6.893	1398003	REC_WORD	11.706	n/a	PURSE	-999	9	[0, 0, 0]	n/a	FR1	4	R1083J
1075.522	5.554	1404896	REC_WORD	18.599	n/a	STAY	-999	9	[0, 0, 0]	n/a	FR1	4	R1083J
1081.076	5.863	1410450	REC_WORD	24.153	n/a	DRAW	-999	9	[0, 0, 0]	n/a	FR1	4	R1083J
1086.939	2.338	1416313	REC_END	n/a	n/a	n/a	-999	9	[0, 0, 0]	n/a	FR1	4	R1083J
1089.277	0.0	1418651	TRIAL	n/a	n/a	n/a	-999	10	[0, 0, 0]	n/a	FR1	4	R1083J
1089.277	10.0	1418651	COUNTDOWN_START	n/a	n/a	n/a	-999	10	[0, 0, 0]	n/a	FR1	4	R1083J
1099.705	0.007	1429079	COUNTDOWN_END	n/a	n/a	n/a	-999	10	[0, 0, 0]	n/a	FR1	4	R1083J
1099.712	1.6	1429086	ORIENT	n/a	n/a	n/a	-999	10	[0, 0, 0]	n/a	FR1	4	R1083J
1102.329	1.6	1431703	WORD	n/a	wordpools/wordpool_EN.txt	GRAPE	1	10	[0, 0, 0]	n/a	FR1	4	R1083J
1104.812	1.6	1434186	WORD	n/a	wordpools/wordpool_EN.txt	SOAP	2	10	[0, 0, 0]	n/a	FR1	4	R1083J
1107.196	1.6	1436570	WORD	n/a	wordpools/wordpool_EN.txt	FISH	3	10	[0, 0, 0]	n/a	FR1	4	R1083J
1109.68	1.6	1439054	WORD	n/a	wordpools/wordpool_EN.txt	SHRIMP	4	10	[0, 0, 0]	n/a	FR1	4	R1083J
1112.08	1.6	1441454	WORD	n/a	wordpools/wordpool_EN.txt	BEAN	5	10	[0, 0, 0]	n/a	FR1	4	R1083J
1114.548	1.6	1443922	WORD	n/a	wordpools/wordpool_EN.txt	SPRING	6	10	[0, 0, 0]	n/a	FR1	4	R1083J
1116.997	1.6	1446371	WORD	n/a	wordpools/wordpool_EN.txt	LIP	7	10	[0, 0, 0]	n/a	FR1	4	R1083J
1119.431	1.6	1448805	WORD	n/a	wordpools/wordpool_EN.txt	RIB	8	10	[0, 0, 0]	n/a	FR1	4	R1083J
1121.815	1.6	1451189	WORD	n/a	wordpools/wordpool_EN.txt	RICE	9	10	[0, 0, 0]	n/a	FR1	4	R1083J
1124.198	1.6	1453572	WORD	n/a	wordpools/wordpool_EN.txt	DIME	10	10	[0, 0, 0]	n/a	FR1	4	R1083J
1126.65	1.6	1456024	WORD	n/a	wordpools/wordpool_EN.txt	STEM	11	10	[0, 0, 0]	n/a	FR1	4	R1083J
1129.149	1.6	1458522	WORD	n/a	wordpools/wordpool_EN.txt	LEAF	12	10	[0, 0, 0]	n/a	FR1	4	R1083J
1130.766	0.001	1460139	DISTRACT_START	n/a	n/a	n/a	-999	10	[0, 0, 0]	n/a	FR1	4	R1083J
1130.767	0.016	1460140	START	n/a	n/a	n/a	-999	10	[-999, -999, -999]	n/a	FR1	4	R1083J
1130.783	4.2	1460156	PROB	4.171	n/a	n/a	-999	10	[8, 4, 6]	18.0	FR1	4	R1083J
1134.983	2.767	1464356	PROB	2.74	n/a	n/a	-999	10	[6, 4, 7]	17.0	FR1	4	R1083J
1137.75	2.217	1467123	PROB	2.189	n/a	n/a	-999	10	[8, 2, 8]	18.0	FR1	4	R1083J
1139.967	2.117	1469340	PROB	2.083	n/a	n/a	-999	10	[9, 8, 6]	23.0	FR1	4	R1083J
1142.084	2.167	1471457	PROB	2.142	n/a	n/a	-999	10	[2, 1, 2]	5.0	FR1	4	R1083J
1144.251	2.067	1473624	PROB	2.039	n/a	n/a	-999	10	[9, 8, 5]	23.0	FR1	4	R1083J
1146.318	3.9	1475691	PROB	3.868	n/a	n/a	-999	10	[4, 8, 4]	16.0	FR1	4	R1083J
1150.218	3.608	1479591	PROB	3.608	n/a	n/a	-999	10	[4, 9, 6]	19.0	FR1	4	R1083J
1153.826	0.009	1483199	STOP	n/a	n/a	n/a	-999	10	[-999, -999, -999]	n/a	FR1	4	R1083J
1153.835	1.101	1483208	DISTRACT_END	n/a	n/a	n/a	-999	10	[0, 0, 0]	n/a	FR1	4	R1083J
1154.936	3.017	1484309	REC_START	n/a	n/a	n/a	-999	10	[0, 0, 0]	n/a	FR1	4	R1083J
1157.953	2.076	1487326	REC_WORD_VV	3.017	n/a	<>	-999	10	[0, 0, 0]	n/a	FR1	4	R1083J
1160.029	2.538	1489402	REC_WORD	5.093	n/a	ICE	-999	10	[0, 0, 0]	n/a	FR1	4	R1083J
1162.567	8.987	1491940	REC_WORD	7.631	n/a	STICK	-999	10	[0, 0, 0]	n/a	FR1	4	R1083J
1171.554	5.409	1500927	REC_WORD	16.618	n/a	CHEESE	-999	10	[0, 0, 0]	n/a	FR1	4	R1083J
1176.963	7.983	1506336	REC_WORD	22.027	n/a	TEST	-999	10	[0, 0, 0]	n/a	FR1	4	R1083J
1184.946	2.094	1514319	REC_END	n/a	n/a	n/a	-999	10	[0, 0, 0]	n/a	FR1	4	R1083J
1187.04	10.0	1516413	COUNTDOWN_START	n/a	n/a	n/a	-999	11	[0, 0, 0]	n/a	FR1	4	R1083J
1187.04	10.428	1516413	TRIAL	n/a	n/a	n/a	-999	11	[0, 0, 0]	n/a	FR1	4	R1083J
1197.468	0.008	1526841	COUNTDOWN_END	n/a	n/a	n/a	-999	11	[0, 0, 0]	n/a	FR1	4	R1083J
1197.476	1.6	1526849	ORIENT	n/a	n/a	n/a	-999	11	[0, 0, 0]	n/a	FR1	4	R1083J
1199.958	1.6	1529331	WORD	n/a	wordpools/wordpool_EN.txt	CORD	1	11	[0, 0, 0]	n/a	FR1	4	R1083J
1202.443	1.6	1531816	WORD	n/a	wordpools/wordpool_EN.txt	WAVE	2	11	[0, 0, 0]	n/a	FR1	4	R1083J
1204.892	1.6	1534265	WORD	n/a	wordpools/wordpool_EN.txt	JUICE	3	11	[0, 0, 0]	n/a	FR1	4	R1083J
1207.259	1.6	1536632	WORD	n/a	wordpools/wordpool_EN.txt	SHEEP	4	11	[0, 0, 0]	n/a	FR1	4	R1083J
1209.843	1.6	1539216	WORD	n/a	wordpools/wordpool_EN.txt	MAP	5	11	[0, 0, 0]	n/a	FR1	4	R1083J
1212.377	1.6	1541750	WORD	n/a	wordpools/wordpool_EN.txt	PLANE	6	11	[0, 0, 0]	n/a	FR1	4	R1083J
1214.776	1.6	1544149	WORD	n/a	wordpools/wordpool_EN.txt	CONE	7	11	[0, 0, 0]	n/a	FR1	4	R1083J
1217.344	1.6	1546717	WORD	n/a	wordpools/wordpool_EN.txt	SHIP	8	11	[0, 0, 0]	n/a	FR1	4	R1083J
1219.827	1.6	1549200	WORD	n/a	wordpools/wordpool_EN.txt	BOMB	9	11	[0, 0, 0]	n/a	FR1	4	R1083J
1222.244	1.6	1551617	WORD	n/a	wordpools/wordpool_EN.txt	POLE	10	11	[0, 0, 0]	n/a	FR1	4	R1083J
1224.811	1.6	1554184	WORD	n/a	wordpools/wordpool_EN.txt	ELF	11	11	[0, 0, 0]	n/a	FR1	4	R1083J
1227.228	1.6	1556601	WORD	n/a	wordpools/wordpool_EN.txt	MOON	12	11	[0, 0, 0]	n/a	FR1	4	R1083J
1228.845	0.001	1558218	DISTRACT_START	n/a	n/a	n/a	-999	11	[0, 0, 0]	n/a	FR1	4	R1083J
1228.846	0.016	1558219	START	n/a	n/a	n/a	-999	11	[-999, -999, -999]	n/a	FR1	4	R1083J
1228.862	8.501	1558235	PROB	8.48	n/a	n/a	-999	11	[1, 4, 5]	10.0	FR1	4	R1083J
1237.363	2.151	1566736	PROB	2.116	n/a	n/a	-999	11	[3, 3, 3]	9.0	FR1	4	R1083J
1239.514	2.866	1568887	PROB	2.844	n/a	n/a	-999	11	[4, 2, 5]	11.0	FR1	4	R1083J
1242.38	1.901	1571753	PROB	1.866	n/a	n/a	-999	11	[5, 3, 8]	16.0	FR1	4	R1083J
1244.281	2.334	1573654	PROB	2.31	n/a	n/a	-999	11	[7, 3, 9]	19.0	FR1	4	R1083J
1246.615	2.239	1575988	PROB	2.239	n/a	n/a	-999	11	[6, 7, 6]	19.0	FR1	4	R1083J
1248.854	0.011	1578227	STOP	n/a	n/a	n/a	-999	11	[-999, -999, -999]	n/a	FR1	4	R1083J
1248.865	1.167	1578238	DISTRACT_END	n/a	n/a	n/a	-999	11	[0, 0, 0]	n/a	FR1	4	R1083J
1250.032	2.736	1579405	REC_START	n/a	n/a	n/a	-999	11	[0, 0, 0]	n/a	FR1	4	R1083J
1252.768	4.387	1582141	REC_WORD	2.736	n/a	ELF	-999	11	[0, 0, 0]	n/a	FR1	4	R1083J
1257.155	8.104	1586528	REC_WORD	7.123	n/a	WISH	-999	11	[0, 0, 0]	n/a	FR1	4	R1083J
1265.259	9.272	1594632	REC_WORD	15.227	n/a	SLEEVE	-999	11	[0, 0, 0]	n/a	FR1	4	R1083J
1274.531	5.398	1603904	REC_WORD	24.499	n/a	BOX	-999	11	[0, 0, 0]	n/a	FR1	4	R1083J
1279.929	0.117	1609302	REC_WORD_VV	29.897	n/a	<>	-999	11	[0, 0, 0]	n/a	FR1	4	R1083J
1280.046	2.123	1609419	REC_END	n/a	n/a	n/a	-999	11	[0, 0, 0]	n/a	FR1	4	R1083J
1282.169	0.0	1611542	TRIAL	n/a	n/a	n/a	-999	12	[0, 0, 0]	n/a	FR1	4	R1083J
1282.169	10.0	1611542	COUNTDOWN_START	n/a	n/a	n/a	-999	12	[0, 0, 0]	n/a	FR1	4	R1083J
1292.597	0.007	1621970	COUNTDOWN_END	n/a	n/a	n/a	-999	12	[0, 0, 0]	n/a	FR1	4	R1083J
1292.604	1.6	1621977	ORIENT	n/a	n/a	n/a	-999	12	[0, 0, 0]	n/a	FR1	4	R1083J
1295.22	1.6	1624593	WORD	n/a	wordpools/wordpool_EN.txt	COW	1	12	[0, 0, 0]	n/a	FR1	4	R1083J
1297.655	1.6	1627028	WORD	n/a	wordpools/wordpool_EN.txt	DOLL	2	12	[0, 0, 0]	n/a	FR1	4	R1083J
1300.104	1.6	1629477	WORD	n/a	wordpools/wordpool_EN.txt	HOOF	3	12	[0, 0, 0]	n/a	FR1	4	R1083J
1302.622	1.6	1631995	WORD	n/a	wordpools/wordpool_EN.txt	SOUP	4	12	[0, 0, 0]	n/a	FR1	4	R1083J
1305.005	1.6	1634378	WORD	n/a	wordpools/wordpool_EN.txt	STRAW	5	12	[0, 0, 0]	n/a	FR1	4	R1083J
1307.405	1.6	1636778	WORD	n/a	wordpools/wordpool_EN.txt	PASTE	6	12	[0, 0, 0]	n/a	FR1	4	R1083J
1309.906	1.6	1639279	WORD	n/a	wordpools/wordpool_EN.txt	OAK	7	12	[0, 0, 0]	n/a	FR1	4	R1083J
1312.406	1.6	1641779	WORD	n/a	wordpools/wordpool_EN.txt	CUP	8	12	[0, 0, 0]	n/a	FR1	4	R1083J
1314.956	1.6	1644329	WORD	n/a	wordpools/wordpool_EN.txt	TOAST	9	12	[0, 0, 0]	n/a	FR1	4	R1083J
1317.357	1.6	1646730	WORD	n/a	wordpools/wordpool_EN.txt	VINE	10	12	[0, 0, 0]	n/a	FR1	4	R1083J
1319.757	1.6	1649130	WORD	n/a	wordpools/wordpool_EN.txt	DOOR	11	12	[0, 0, 0]	n/a	FR1	4	R1083J
1322.241	1.6	1651614	WORD	n/a	wordpools/wordpool_EN.txt	PEAR	12	12	[0, 0, 0]	n/a	FR1	4	R1083J
1323.857	0.001	1653230	DISTRACT_START	n/a	n/a	n/a	-999	12	[0, 0, 0]	n/a	FR1	4	R1083J
1323.858	0.016	1653231	START	n/a	n/a	n/a	-999	12	[-999, -999, -999]	n/a	FR1	4	R1083J
1323.874	4.101	1653247	PROB	4.065	n/a	n/a	-999	12	[5, 2, 2]	9.0	FR1	4	R1083J
1327.975	2.883	1657348	PROB	2.852	n/a	n/a	-999	12	[4, 2, 1]	7.0	FR1	4	R1083J
1330.858	2.55	1660231	PROB	2.528	n/a	n/a	-999	12	[7, 7, 7]	21.0	FR1	4	R1083J
1333.408	2.284	1662781	PROB	2.25	n/a	n/a	-999	12	[2, 8, 4]	14.0	FR1	4	R1083J
1335.692	2.017	1665065	PROB	1.991	n/a	n/a	-999	12	[7, 6, 8]	21.0	FR1	4	R1083J
1337.709	2.551	1667082	PROB	2.525	n/a	n/a	-999	12	[3, 8, 9]	20.0	FR1	4	R1083J
1340.26	2.616	1669633	PROB	2.582	n/a	n/a	-999	12	[3, 9, 6]	18.0	FR1	4	R1083J
1342.876	2.974	1672249	PROB	2.974	n/a	n/a	-999	12	[6, 9, 4]	19.0	FR1	4	R1083J
1345.85	0.01	1675223	STOP	n/a	n/a	n/a	-999	12	[-999, -999, -999]	n/a	FR1	4	R1083J
1345.86	1.051	1675233	DISTRACT_END	n/a	n/a	n/a	-999	12	[0, 0, 0]	n/a	FR1	4	R1083J
1346.911	2.223	1676284	REC_START	n/a	n/a	n/a	-999	12	[0, 0, 0]	n/a	FR1	4	R1083J
1349.134	2.491	1678507	REC_WORD	2.223	n/a	CUFF	-999	12	[0, 0, 0]	n/a	FR1	4	R1083J
1351.625	6.25	1680998	REC_WORD	4.714	n/a	FRAME	-999	12	[0, 0, 0]	n/a	FR1	4	R1083J
1357.875	3.413	1687248	REC_WORD	10.964	n/a	VINE	-999	12	[0, 0, 0]	n/a	FR1	4	R1083J
1361.288	4.187	1690661	REC_WORD	14.377	n/a	STEM	-999	12	[0, 0, 0]	n/a	FR1	4	R1083J
1365.475	7.068	1694848	REC_WORD	18.564	n/a	GLASS	-999	12	[0, 0, 0]	n/a	FR1	4	R1083J
1372.543	4.377	1701916	REC_WORD	25.632	n/a	WISH	-999	12	[0, 0, 0]	n/a	FR1	4	R1083J
1376.92	2.696	1706293	REC_END	n/a	n/a	n/a	-999	12	[0, 0, 0]	n/a	FR1	4	R1083J
1379.616	0.0	1708989	TRIAL	n/a	n/a	n/a	-999	13	[0, 0, 0]	n/a	FR1	4	R1083J
1379.616	10.0	1708989	COUNTDOWN_START	n/a	n/a	n/a	-999	13	[0, 0, 0]	n/a	FR1	4	R1083J
1390.044	0.005	1719416	COUNTDOWN_END	n/a	n/a	n/a	-999	13	[0, 0, 0]	n/a	FR1	4	R1083J
1390.049	1.6	1719421	ORIENT	n/a	n/a	n/a	-999	13	[0, 0, 0]	n/a	FR1	4	R1083J
1392.617	1.6	1721989	WORD	n/a	wordpools/wordpool_EN.txt	STOOL	1	13	[0, 0, 0]	n/a	FR1	4	R1083J
1395.033	1.6	1724405	WORD	n/a	wordpools/wordpool_EN.txt	TEA	2	13	[0, 0, 0]	n/a	FR1	4	R1083J
1397.551	1.6	1726923	WORD	n/a	wordpools/wordpool_EN.txt	GEESE	3	13	[0, 0, 0]	n/a	FR1	4	R1083J
1399.967	1.6	1729339	WORD	n/a	wordpools/wordpool_EN.txt	SOCK	4	13	[0, 0, 0]	n/a	FR1	4	R1083J
1402.468	1.6	1731840	WORD	n/a	wordpools/wordpool_EN.txt	CLOWN	5	13	[0, 0, 0]	n/a	FR1	4	R1083J
1404.984	1.6	1734356	WORD	n/a	wordpools/wordpool_EN.txt	PIG	6	13	[0, 0, 0]	n/a	FR1	4	R1083J
1407.586	1.6	1736958	WORD	n/a	wordpools/wordpool_EN.txt	FLUTE	7	13	[0, 0, 0]	n/a	FR1	4	R1083J
1410.119	1.6	1739491	WORD	n/a	wordpools/wordpool_EN.txt	BARN	8	13	[0, 0, 0]	n/a	FR1	4	R1083J
1412.669	1.6	1742041	WORD	n/a	wordpools/wordpool_EN.txt	TRUCK	9	13	[0, 0, 0]	n/a	FR1	4	R1083J
1415.152	1.6	1744524	WORD	n/a	wordpools/wordpool_EN.txt	FAN	10	13	[0, 0, 0]	n/a	FR1	4	R1083J
1417.654	1.6	1747026	WORD	n/a	wordpools/wordpool_EN.txt	HAT	11	13	[0, 0, 0]	n/a	FR1	4	R1083J
1420.236	1.6	1749608	WORD	n/a	wordpools/wordpool_EN.txt	MUG	12	13	[0, 0, 0]	n/a	FR1	4	R1083J
1421.853	0.001	1751225	DISTRACT_START	n/a	n/a	n/a	-999	13	[0, 0, 0]	n/a	FR1	4	R1083J
1421.854	0.016	1751226	START	n/a	n/a	n/a	-999	13	[-999, -999, -999]	n/a	FR1	4	R1083J
1421.87	5.101	1751242	PROB	5.065	n/a	n/a	-999	13	[8, 7, 4]	19.0	FR1	4	R1083J
1426.971	2.684	1756343	PROB	2.661	n/a	n/a	-999	13	[4, 2, 1]	7.0	FR1	4	R1083J
1429.655	2.317	1759027	PROB	2.297	n/a	n/a	-999	13	[5, 5, 7]	17.0	FR1	4	R1083J
1431.972	2.866	1761344	PROB	2.843	n/a	n/a	-999	13	[1, 6, 3]	10.0	FR1	4	R1083J
1434.838	1.984	1764210	PROB	1.953	n/a	n/a	-999	13	[9, 9, 5]	23.0	FR1	4	R1083J
1436.822	2.967	1766194	PROB	2.937	n/a	n/a	-999	13	[1, 8, 9]	18.0	FR1	4	R1083J
1439.789	2.338	1769161	PROB	2.338	n/a	n/a	-999	13	[8, 1, 8]	17.0	FR1	4	R1083J
1442.127	0.013	1771499	STOP	n/a	n/a	n/a	-999	13	[-999, -999, -999]	n/a	FR1	4	R1083J
1442.14	1.133	1771512	DISTRACT_END	n/a	n/a	n/a	-999	13	[0, 0, 0]	n/a	FR1	4	R1083J
1443.273	1.95	1772645	REC_START	n/a	n/a	n/a	-999	13	[0, 0, 0]	n/a	FR1	4	R1083J
1445.223	8.097	1774595	REC_WORD	1.95	n/a	CLOWN	-999	13	[0, 0, 0]	n/a	FR1	4	R1083J
1453.32	8.454	1782692	REC_WORD	10.047	n/a	BIT	-999	13	[0, 0, 0]	n/a	FR1	4	R1083J
1461.774	1.758	1791146	REC_WORD_VV	18.501	n/a	<>	-999	13	[0, 0, 0]	n/a	FR1	4	R1083J
1463.532	9.092	1792904	REC_WORD	20.259	n/a	WORM	-999	13	[0, 0, 0]	n/a	FR1	4	R1083J
1472.624	0.663	1801996	REC_WORD_VV	29.351	n/a	<>	-999	13	[0, 0, 0]	n/a	FR1	4	R1083J
1473.287	49.646	1802659	REC_END	n/a	n/a	n/a	-999	13	[0, 0, 0]	n/a	FR1	4	R1083J
1522.933	0.0	1852305	TRIAL	n/a	n/a	n/a	-999	14	[0, 0, 0]	n/a	FR1	4	R1083J
1522.933	10.0	1852305	COUNTDOWN_START	n/a	n/a	n/a	-999	14	[0, 0, 0]	n/a	FR1	4	R1083J
