onset	duration	sample	trial_type	response_time	stim_file	item_name	serialpos	list	test	answer	experiment	session	subject
0.0	55.519	150860	SESS_START	n/a	n/a	n/a	-999	-999	[0, 0, 0]	n/a	FR1	0	R1002P
55.519	10.0	178618	COUNTDOWN_START	n/a	n/a	n/a	-999	-999	[0, 0, 0]	n/a	FR1	0	R1002P
65.947	3.623	183831	COUNTDOWN_END	n/a	n/a	n/a	-999	-999	[0, 0, 0]	n/a	FR1	0	R1002P
69.57	1.6	185643	PRACTICE_WORD	n/a	n/a	ATTIC	1	-1	[0, 0, 0]	n/a	FR1	0	R1002P
72.104	1.6	186910	PRACTICE_WORD	n/a	n/a	RING	2	-1	[0, 0, 0]	n/a	FR1	0	R1002P
74.588	1.6	188152	PRACTICE_WORD	n/a	n/a	IRON	3	-1	[0, 0, 0]	n/a	FR1	0	R1002P
77.139	1.6	189427	PRACTICE_WORD	n/a	n/a	TONGUE	4	-1	[0, 0, 0]	n/a	FR1	0	R1002P
79.572	1.6	190644	PRACTICE_WORD	n/a	n/a	BEAM	5	-1	[0, 0, 0]	n/a	FR1	0	R1002P
82.039	1.6	191877	PRACTICE_WORD	n/a	n/a	WAGON	6	-1	[0, 0, 0]	n/a	FR1	0	R1002P
84.424	1.6	193069	PRACTICE_WORD	n/a	n/a	COTTON	7	-1	[0, 0, 0]	n/a	FR1	0	R1002P
86.907	1.6	194311	PRACTICE_WORD	n/a	n/a	CHEST	8	-1	[0, 0, 0]	n/a	FR1	0	R1002P
89.458	1.6	195586	PRACTICE_WORD	n/a	n/a	RHINO	9	-1	[0, 0, 0]	n/a	FR1	0	R1002P
92.041	1.6	196878	PRACTICE_WORD	n/a	n/a	CAMEL	10	-1	[0, 0, 0]	n/a	FR1	0	R1002P
94.592	1.6	198153	PRACTICE_WORD	n/a	n/a	FLOOD	11	-1	[0, 0, 0]	n/a	FR1	0	R1002P
97.092	1.6	199403	PRACTICE_WORD	n/a	n/a	WATCH	12	-1	[0, 0, 0]	n/a	FR1	0	R1002P
98.693	0.0	200204	PRACTICE_DISTRACT_START	n/a	n/a	n/a	-999	-1	[0, 0, 0]	n/a	FR1	0	R1002P
98.693	0.016	200204	START	n/a	n/a	n/a	-999	-1	[-999, -999, -999]	n/a	FR1	0	R1002P
98.709	7.719	200212	PROB	7.686	n/a	n/a	-999	-1	[4, 3, 1]	8.0	FR1	0	R1002P
106.428	6.517	204071	PROB	6.487	n/a	n/a	-999	-1	[3, 9, 1]	13.0	FR1	0	R1002P
112.945	5.502	207329	PROB	5.475	n/a	n/a	-999	-1	[5, 1, 3]	9.0	FR1	0	R1002P
118.447	5.092	210080	PROB	5.092	n/a	n/a	-999	-1	[1, 8, 9]	18.0	FR1	0	R1002P
123.539	0.008	212626	STOP	n/a	n/a	n/a	-999	-1	[-999, -999, -999]	n/a	FR1	0	R1002P
123.547	0.553	212630	PRACTICE_DISTRACT_END	n/a	n/a	n/a	-999	-1	[0, 0, 0]	n/a	FR1	0	R1002P
124.1	30.514	212906	PRACTICE_REC_START	n/a	n/a	n/a	-999	-1	[0, 0, 0]	n/a	FR1	0	R1002P
154.614	67.102	228162	PRACTICE_REC_END	n/a	n/a	n/a	-999	-1	[0, 0, 0]	n/a	FR1	0	R1002P
221.716	10.0	261712	COUNTDOWN_START	n/a	n/a	n/a	-999	1	[0, 0, 0]	n/a	FR1	0	R1002P
221.716	10.428	261712	TRIAL	n/a	n/a	n/a	-999	1	[0, 0, 0]	n/a	FR1	0	R1002P
232.144	0.007	266925	COUNTDOWN_END	n/a	n/a	n/a	-999	1	[0, 0, 0]	n/a	FR1	0	R1002P
232.151	1.6	266929	ORIENT	n/a	n/a	n/a	-999	1	[0, 0, 0]	n/a	FR1	0	R1002P
234.668	1.6	268187	WORD	n/a	wordpools/wordpool_EN.txt	PEARL	1	1	[0, 0, 0]	n/a	FR1	0	R1002P
237.102	1.6	269404	WORD	n/a	wordpools/wordpool_EN.txt	STEAM	2	1	[0, 0, 0]	n/a	FR1	0	R1002P
239.552	1.6	270629	WORD	n/a	wordpools/wordpool_EN.txt	JET	3	1	[0, 0, 0]	n/a	FR1	0	R1002P
242.003	1.6	271855	WORD	n/a	wordpools/wordpool_EN.txt	ICE	4	1	[0, 0, 0]	n/a	FR1	0	R1002P
244.553	1.6	273130	WORD	n/a	wordpools/wordpool_EN.txt	SEA	5	1	[0, 0, 0]	n/a	FR1	0	R1002P
246.987	1.6	274346	WORD	n/a	wordpools/wordpool_EN.txt	SPARK	6	1	[0, 0, 0]	n/a	FR1	0	R1002P
249.571	1.6	275638	WORD	n/a	wordpools/wordpool_EN.txt	SUN	7	1	[0, 0, 0]	n/a	FR1	0	R1002P
251.972	1.6	276839	WORD	n/a	wordpools/wordpool_EN.txt	SHARK	8	1	[0, 0, 0]	n/a	FR1	0	R1002P
254.473	1.6	278089	WORD	n/a	wordpools/wordpool_EN.txt	PIT	9	1	[0, 0, 0]	n/a	FR1	0	R1002P
256.922	1.6	279314	WORD	n/a	wordpools/wordpool_EN.txt	MAP	10	1	[0, 0, 0]	n/a	FR1	0	R1002P
259.306	1.6	280506	WORD	n/a	wordpools/wordpool_EN.txt	PLANE	11	1	[0, 0, 0]	n/a	FR1	0	R1002P
261.74	1.6	281723	WORD	n/a	wordpools/wordpool_EN.txt	SAIL	12	1	[0, 0, 0]	n/a	FR1	0	R1002P
263.357	0.001	282531	DISTRACT_START	n/a	n/a	n/a	-999	1	[0, 0, 0]	n/a	FR1	0	R1002P
263.358	0.016	282531	START	n/a	n/a	n/a	-999	1	[-999, -999, -999]	n/a	FR1	0	R1002P
263.374	6.201	282539	PROB	6.165	n/a	n/a	-999	1	[3, 8, 2]	13.0	FR1	0	R1002P
269.575	4.167	285640	PROB	4.14	n/a	n/a	-999	1	[9, 1, 1]	11.0	FR1	0	R1002P
273.742	7.769	287723	PROB	7.734	n/a	n/a	-999	1	[6, 2, 9]	17.0	FR1	0	R1002P
281.511	4.028	291607	PROB	4.028	n/a	n/a	-999	1	[1, 8, 1]	10.0	FR1	0	R1002P
285.539	0.005	293621	STOP	n/a	n/a	n/a	-999	1	[-999, -999, -999]	n/a	FR1	0	R1002P
285.544	1.151	293624	DISTRACT_END	n/a	n/a	n/a	-999	1	[0, 0, 0]	n/a	FR1	0	R1002P
286.695	0.986	294199	REC_START	n/a	n/a	n/a	-999	1	[0, 0, 0]	n/a	FR1	0	R1002P
287.681	1.114	294692	REC_WORD	0.986	n/a	PEARL	-999	1	[0, 0, 0]	n/a	FR1	0	R1002P
288.795	1.514	295249	REC_WORD	2.1	n/a	STEAM	-999	1	[0, 0, 0]	n/a	FR1	0	R1002P
290.309	1.441	296006	REC_WORD	3.614	n/a	JET	-999	1	[0, 0, 0]	n/a	FR1	0	R1002P
291.75	2.902	296727	REC_WORD	5.055	n/a	ICE	-999	1	[0, 0, 0]	n/a	FR1	0	R1002P
294.652	5.989	298178	REC_WORD_VV	7.957	n/a	<>	-999	1	[0, 0, 0]	n/a	FR1	0	R1002P
300.641	3.073	301172	REC_WORD_VV	13.946	n/a	<>	-999	1	[0, 0, 0]	n/a	FR1	0	R1002P
303.714	1.716	302708	REC_WORD_VV	17.019	n/a	<>	-999	1	[0, 0, 0]	n/a	FR1	0	R1002P
305.43	1.0	303566	REC_WORD_VV	18.735	n/a	<>	-999	1	[0, 0, 0]	n/a	FR1	0	R1002P
306.43	10.279	304066	REC_WORD_VV	19.735	n/a	<>	-999	1	[0, 0, 0]	n/a	FR1	0	R1002P
316.709	4.125	309206	REC_END	n/a	n/a	n/a	-999	1	[0, 0, 0]	n/a	FR1	0	R1002P
320.834	10.0	311268	COUNTDOWN_START	n/a	n/a	n/a	-999	2	[0, 0, 0]	n/a	FR1	0	R1002P
320.835	10.427	311268	TRIAL	n/a	n/a	n/a	-999	2	[0, 0, 0]	n/a	FR1	0	R1002P
331.262	0.008	316482	COUNTDOWN_END	n/a	n/a	n/a	-999	2	[0, 0, 0]	n/a	FR1	0	R1002P
331.27	1.6	316486	ORIENT	n/a	n/a	n/a	-999	2	[0, 0, 0]	n/a	FR1	0	R1002P
333.887	1.6	317794	WORD	n/a	wordpools/wordpool_EN.txt	SEAT	1	2	[0, 0, 0]	n/a	FR1	0	R1002P
336.304	1.6	319002	WORD	n/a	wordpools/wordpool_EN.txt	MULE	2	2	[0, 0, 0]	n/a	FR1	0	R1002P
338.921	1.6	320311	WORD	n/a	wordpools/wordpool_EN.txt	TOOTH	3	2	[0, 0, 0]	n/a	FR1	0	R1002P
341.473	1.6	321587	WORD	n/a	wordpools/wordpool_EN.txt	PASTE	4	2	[0, 0, 0]	n/a	FR1	0	R1002P
343.972	1.6	322836	WORD	n/a	wordpools/wordpool_EN.txt	TRAY	5	2	[0, 0, 0]	n/a	FR1	0	R1002P
346.539	1.6	324120	WORD	n/a	wordpools/wordpool_EN.txt	TEETH	6	2	[0, 0, 0]	n/a	FR1	0	R1002P
348.989	1.6	325345	WORD	n/a	wordpools/wordpool_EN.txt	BEAK	7	2	[0, 0, 0]	n/a	FR1	0	R1002P
351.508	1.6	326604	WORD	n/a	wordpools/wordpool_EN.txt	BRIDGE	8	2	[0, 0, 0]	n/a	FR1	0	R1002P
354.107	1.6	327903	WORD	n/a	wordpools/wordpool_EN.txt	SALT	9	2	[0, 0, 0]	n/a	FR1	0	R1002P
356.541	1.6	329120	WORD	n/a	wordpools/wordpool_EN.txt	PIPE	10	2	[0, 0, 0]	n/a	FR1	0	R1002P
359.025	1.6	330362	WORD	n/a	wordpools/wordpool_EN.txt	SOAP	11	2	[0, 0, 0]	n/a	FR1	0	R1002P
361.592	1.6	331646	WORD	n/a	wordpools/wordpool_EN.txt	TOAST	12	2	[0, 0, 0]	n/a	FR1	0	R1002P
363.209	0.001	332454	DISTRACT_START	n/a	n/a	n/a	-999	2	[0, 0, 0]	n/a	FR1	0	R1002P
363.21	0.016	332455	START	n/a	n/a	n/a	-999	2	[-999, -999, -999]	n/a	FR1	0	R1002P
363.226	6.984	332463	PROB	6.953	n/a	n/a	-999	2	[9, 6, 5]	20.0	FR1	0	R1002P
370.21	3.951	335955	PROB	3.929	n/a	n/a	-999	2	[1, 4, 1]	6.0	FR1	0	R1002P
374.161	3.984	337930	PROB	3.954	n/a	n/a	-999	2	[1, 7, 2]	9.0	FR1	0	R1002P
378.145	3.417	339922	PROB	3.394	n/a	n/a	-999	2	[6, 1, 1]	8.0	FR1	0	R1002P
381.562	3.906	341630	PROB	3.906	n/a	n/a	-999	2	[2, 8, 1]	11.0	FR1	0	R1002P
385.468	0.013	343583	STOP	n/a	n/a	n/a	-999	2	[-999, -999, -999]	n/a	FR1	0	R1002P
385.481	1.083	343590	DISTRACT_END	n/a	n/a	n/a	-999	2	[0, 0, 0]	n/a	FR1	0	R1002P
386.564	0.784	344131	REC_START	n/a	n/a	n/a	-999	2	[0, 0, 0]	n/a	FR1	0	R1002P
387.348	0.79	344523	REC_WORD	0.784	n/a	SEAT	-999	2	[0, 0, 0]	n/a	FR1	0	R1002P
388.138	0.844	344918	REC_WORD	1.574	n/a	PASTE	-999	2	[0, 0, 0]	n/a	FR1	0	R1002P
388.982	2.636	345340	REC_WORD	2.418	n/a	BRIDGE	-999	2	[0, 0, 0]	n/a	FR1	0	R1002P
391.618	3.365	346658	REC_WORD	5.054	n/a	TEETH	-999	2	[0, 0, 0]	n/a	FR1	0	R1002P
394.983	4.235	348340	REC_WORD	8.419	n/a	MULE	-999	2	[0, 0, 0]	n/a	FR1	0	R1002P
399.218	1.715	350458	REC_WORD_VV	12.654	n/a	<>	-999	2	[0, 0, 0]	n/a	FR1	0	R1002P
400.933	2.697	351315	REC_WORD_VV	14.369	n/a	<>	-999	2	[0, 0, 0]	n/a	FR1	0	R1002P
403.63	12.944	352664	REC_WORD	17.066	n/a	TOOTH	-999	2	[0, 0, 0]	n/a	FR1	0	R1002P
416.574	2.947	359135	REC_END	n/a	n/a	n/a	-999	2	[0, 0, 0]	n/a	FR1	0	R1002P
419.521	0.0	360609	TRIAL	n/a	n/a	n/a	-999	3	[0, 0, 0]	n/a	FR1	0	R1002P
419.521	10.0	360609	COUNTDOWN_START	n/a	n/a	n/a	-999	3	[0, 0, 0]	n/a	FR1	0	R1002P
429.949	0.006	365822	COUNTDOWN_END	n/a	n/a	n/a	-999	3	[0, 0, 0]	n/a	FR1	0	R1002P
429.955	1.6	365825	ORIENT	n/a	n/a	n/a	-999	3	[0, 0, 0]	n/a	FR1	0	R1002P
432.49	1.6	367093	WORD	n/a	wordpools/wordpool_EN.txt	CAPE	1	3	[0, 0, 0]	n/a	FR1	0	R1002P
434.872	1.6	368284	WORD	n/a	wordpools/wordpool_EN.txt	BAG	2	3	[0, 0, 0]	n/a	FR1	0	R1002P
437.323	1.6	369509	WORD	n/a	wordpools/wordpool_EN.txt	MAT	3	3	[0, 0, 0]	n/a	FR1	0	R1002P
439.89	1.6	370793	WORD	n/a	wordpools/wordpool_EN.txt	DOOR	4	3	[0, 0, 0]	n/a	FR1	0	R1002P
442.357	1.6	372026	WORD	n/a	wordpools/wordpool_EN.txt	STOVE	5	3	[0, 0, 0]	n/a	FR1	0	R1002P
444.858	1.6	373277	WORD	n/a	wordpools/wordpool_EN.txt	PURSE	6	3	[0, 0, 0]	n/a	FR1	0	R1002P
447.358	1.6	374526	WORD	n/a	wordpools/wordpool_EN.txt	SHIRT	7	3	[0, 0, 0]	n/a	FR1	0	R1002P
449.925	1.6	375810	WORD	n/a	wordpools/wordpool_EN.txt	BOOT	8	3	[0, 0, 0]	n/a	FR1	0	R1002P
452.376	1.6	377035	WORD	n/a	wordpools/wordpool_EN.txt	BATH	9	3	[0, 0, 0]	n/a	FR1	0	R1002P
454.81	1.6	378252	WORD	n/a	wordpools/wordpool_EN.txt	TEA	10	3	[0, 0, 0]	n/a	FR1	0	R1002P
457.193	1.6	379444	WORD	n/a	wordpools/wordpool_EN.txt	PEA	11	3	[0, 0, 0]	n/a	FR1	0	R1002P
459.577	1.6	380636	WORD	n/a	wordpools/wordpool_EN.txt	CLOTH	12	3	[0, 0, 0]	n/a	FR1	0	R1002P
461.194	0.001	381444	DISTRACT_START	n/a	n/a	n/a	-999	3	[0, 0, 0]	n/a	FR1	0	R1002P
461.195	0.016	381445	START	n/a	n/a	n/a	-999	3	[-999, -999, -999]	n/a	FR1	0	R1002P
461.211	5.101	381453	PROB	5.064	n/a	n/a	-999	3	[9, 6, 2]	17.0	FR1	0	R1002P
466.312	4.717	384003	PROB	4.691	n/a	n/a	-999	3	[1, 3, 8]	12.0	FR1	0	R1002P
471.029	4.435	386361	PROB	4.415	n/a	n/a	-999	3	[7, 1, 6]	14.0	FR1	0	R1002P
475.464	4.45	388579	PROB	4.427	n/a	n/a	-999	3	[6, 3, 8]	17.0	FR1	0	R1002P
479.914	4.921	390804	PROB	4.921	n/a	n/a	-999	3	[8, 4, 7]	19.0	FR1	0	R1002P
484.835	0.014	393264	STOP	n/a	n/a	n/a	-999	3	[-999, -999, -999]	n/a	FR1	0	R1002P
484.849	1.067	393271	DISTRACT_END	n/a	n/a	n/a	-999	3	[0, 0, 0]	n/a	FR1	0	R1002P
485.916	1.434	393804	REC_START	n/a	n/a	n/a	-999	3	[0, 0, 0]	n/a	FR1	0	R1002P
487.35	2.502	394521	REC_WORD	1.434	n/a	CAPE	-999	3	[0, 0, 0]	n/a	FR1	0	R1002P
489.852	3.254	395772	REC_WORD	3.936	n/a	PURSE	-999	3	[0, 0, 0]	n/a	FR1	0	R1002P
493.106	3.806	397399	REC_WORD	7.19	n/a	BAG	-999	3	[0, 0, 0]	n/a	FR1	0	R1002P
496.912	2.713	399302	REC_WORD	10.996	n/a	MAT	-999	3	[0, 0, 0]	n/a	FR1	0	R1002P
499.625	5.299	400658	REC_WORD	13.709	n/a	BATH	-999	3	[0, 0, 0]	n/a	FR1	0	R1002P
504.924	11.001	403308	REC_WORD_VV	19.008	n/a	<>	-999	3	[0, 0, 0]	n/a	FR1	0	R1002P
515.925	3.28	408808	REC_END	n/a	n/a	n/a	-999	3	[0, 0, 0]	n/a	FR1	0	R1002P
519.205	0.0	410448	TRIAL	n/a	n/a	n/a	-999	4	[0, 0, 0]	n/a	FR1	0	R1002P
519.205	10.0	410448	COUNTDOWN_START	n/a	n/a	n/a	-999	4	[0, 0, 0]	n/a	FR1	0	R1002P
529.633	0.007	415662	COUNTDOWN_END	n/a	n/a	n/a	-999	4	[0, 0, 0]	n/a	FR1	0	R1002P
529.64	1.6	415665	ORIENT	n/a	n/a	n/a	-999	4	[0, 0, 0]	n/a	FR1	0	R1002P
532.091	1.6	416891	WORD	n/a	wordpools/wordpool_EN.txt	CAVE	1	4	[0, 0, 0]	n/a	FR1	0	R1002P
534.525	1.6	418108	WORD	n/a	wordpools/wordpool_EN.txt	STAIR	2	4	[0, 0, 0]	n/a	FR1	0	R1002P
536.992	1.6	419341	WORD	n/a	wordpools/wordpool_EN.txt	COUCH	3	4	[0, 0, 0]	n/a	FR1	0	R1002P
539.493	1.6	420591	WORD	n/a	wordpools/wordpool_EN.txt	DART	4	4	[0, 0, 0]	n/a	FR1	0	R1002P
542.109	1.6	421899	WORD	n/a	wordpools/wordpool_EN.txt	BED	5	4	[0, 0, 0]	n/a	FR1	0	R1002P
544.643	1.6	423166	WORD	n/a	wordpools/wordpool_EN.txt	MAZE	6	4	[0, 0, 0]	n/a	FR1	0	R1002P
547.244	1.6	424467	WORD	n/a	wordpools/wordpool_EN.txt	SNAKE	7	4	[0, 0, 0]	n/a	FR1	0	R1002P
549.694	1.6	425692	WORD	n/a	wordpools/wordpool_EN.txt	CLIFF	8	4	[0, 0, 0]	n/a	FR1	0	R1002P
552.111	1.6	426900	WORD	n/a	wordpools/wordpool_EN.txt	TOE	9	4	[0, 0, 0]	n/a	FR1	0	R1002P
554.695	1.6	428192	WORD	n/a	wordpools/wordpool_EN.txt	CHAIR	10	4	[0, 0, 0]	n/a	FR1	0	R1002P
557.112	1.6	429400	WORD	n/a	wordpools/wordpool_EN.txt	MUD	11	4	[0, 0, 0]	n/a	FR1	0	R1002P
559.563	1.6	430626	WORD	n/a	wordpools/wordpool_EN.txt	BROOM	12	4	[0, 0, 0]	n/a	FR1	0	R1002P
561.18	0.0	431434	DISTRACT_START	n/a	n/a	n/a	-999	4	[0, 0, 0]	n/a	FR1	0	R1002P
561.18	0.016	431434	START	n/a	n/a	n/a	-999	4	[-999, -999, -999]	n/a	FR1	0	R1002P
561.196	4.285	431442	PROB	4.256	n/a	n/a	-999	4	[5, 9, 6]	20.0	FR1	0	R1002P
565.481	4.867	433585	PROB	4.842	n/a	n/a	-999	4	[3, 6, 9]	18.0	FR1	0	R1002P
570.348	4.318	436018	PROB	4.295	n/a	n/a	-999	4	[1, 3, 6]	10.0	FR1	0	R1002P
574.666	21.881	438177	PROB	21.881	n/a	n/a	-999	4	[8, 9, 9]	27.0	FR1	0	R1002P
596.547	0.006	449117	STOP	n/a	n/a	n/a	-999	4	[-999, -999, -999]	n/a	FR1	0	R1002P
596.553	1.218	449120	DISTRACT_END	n/a	n/a	n/a	-999	4	[0, 0, 0]	n/a	FR1	0	R1002P
597.771	0.959	449729	REC_START	n/a	n/a	n/a	-999	4	[0, 0, 0]	n/a	FR1	0	R1002P
598.73	2.397	450208	REC_WORD	0.959	n/a	CAVE	-999	4	[0, 0, 0]	n/a	FR1	0	R1002P
601.127	3.181	451407	REC_WORD_VV	3.356	n/a	<>	-999	4	[0, 0, 0]	n/a	FR1	0	R1002P
604.308	1.409	452997	REC_WORD	6.537	n/a	MUD	-999	4	[0, 0, 0]	n/a	FR1	0	R1002P
605.717	2.492	453702	REC_WORD	7.946	n/a	CLIFF	-999	4	[0, 0, 0]	n/a	FR1	0	R1002P
608.209	2.721	454948	REC_WORD	10.438	n/a	COUCH	-999	4	[0, 0, 0]	n/a	FR1	0	R1002P
610.93	3.617	456308	REC_WORD	13.159	n/a	MAZE	-999	4	[0, 0, 0]	n/a	FR1	0	R1002P
614.547	4.657	458116	REC_WORD	16.776	n/a	BROOM	-999	4	[0, 0, 0]	n/a	FR1	0	R1002P
619.204	3.29	460445	REC_WORD_VV	21.433	n/a	<>	-999	4	[0, 0, 0]	n/a	FR1	0	R1002P
622.494	5.287	462090	REC_WORD	24.723	n/a	TOE	-999	4	[0, 0, 0]	n/a	FR1	0	R1002P
627.781	2.795	464733	REC_END	n/a	n/a	n/a	-999	4	[0, 0, 0]	n/a	FR1	0	R1002P
630.576	0.0	466130	TRIAL	n/a	n/a	n/a	-999	5	[0, 0, 0]	n/a	FR1	0	R1002P
630.576	10.0	466130	COUNTDOWN_START	n/a	n/a	n/a	-999	5	[0, 0, 0]	n/a	FR1	0	R1002P
641.004	0.007	471344	COUNTDOWN_END	n/a	n/a	n/a	-999	5	[0, 0, 0]	n/a	FR1	0	R1002P
641.011	1.6	471348	ORIENT	n/a	n/a	n/a	-999	5	[0, 0, 0]	n/a	FR1	0	R1002P
643.529	1.6	472607	WORD	n/a	wordpools/wordpool_EN.txt	BRICK	1	5	[0, 0, 0]	n/a	FR1	0	R1002P
646.079	1.6	473881	WORD	n/a	wordpools/wordpool_EN.txt	SEED	2	5	[0, 0, 0]	n/a	FR1	0	R1002P
648.513	1.6	475098	WORD	n/a	wordpools/wordpool_EN.txt	CORN	3	5	[0, 0, 0]	n/a	FR1	0	R1002P
651.013	1.6	476348	WORD	n/a	wordpools/wordpool_EN.txt	NET	4	5	[0, 0, 0]	n/a	FR1	0	R1002P
653.58	1.6	477632	WORD	n/a	wordpools/wordpool_EN.txt	STEM	5	5	[0, 0, 0]	n/a	FR1	0	R1002P
656.031	1.6	478857	WORD	n/a	wordpools/wordpool_EN.txt	HEART	6	5	[0, 0, 0]	n/a	FR1	0	R1002P
658.564	1.6	480124	WORD	n/a	wordpools/wordpool_EN.txt	TOY	7	5	[0, 0, 0]	n/a	FR1	0	R1002P
660.965	1.6	481324	WORD	n/a	wordpools/wordpool_EN.txt	CORD	8	5	[0, 0, 0]	n/a	FR1	0	R1002P
663.5	1.6	482591	WORD	n/a	wordpools/wordpool_EN.txt	SHRIMP	9	5	[0, 0, 0]	n/a	FR1	0	R1002P
665.966	1.6	483824	WORD	n/a	wordpools/wordpool_EN.txt	WOOD	10	5	[0, 0, 0]	n/a	FR1	0	R1002P
668.451	1.6	485067	WORD	n/a	wordpools/wordpool_EN.txt	BALL	11	5	[0, 0, 0]	n/a	FR1	0	R1002P
671.017	1.6	486350	WORD	n/a	wordpools/wordpool_EN.txt	ROOT	12	5	[0, 0, 0]	n/a	FR1	0	R1002P
672.634	0.001	487158	DISTRACT_START	n/a	n/a	n/a	-999	5	[0, 0, 0]	n/a	FR1	0	R1002P
672.635	0.015	487159	START	n/a	n/a	n/a	-999	5	[-999, -999, -999]	n/a	FR1	0	R1002P
672.65	5.551	487166	PROB	5.521	n/a	n/a	-999	5	[8, 8, 3]	19.0	FR1	0	R1002P
678.201	6.668	489942	PROB	6.634	n/a	n/a	-999	5	[5, 1, 4]	10.0	FR1	0	R1002P
684.869	6.385	493275	PROB	6.357	n/a	n/a	-999	5	[3, 4, 4]	11.0	FR1	0	R1002P
691.254	4.021	496468	PROB	4.021	n/a	n/a	-999	5	[1, 3, 6]	10.0	FR1	0	R1002P
695.275	0.013	498478	STOP	n/a	n/a	n/a	-999	5	[-999, -999, -999]	n/a	FR1	0	R1002P
695.288	1.202	498485	DISTRACT_END	n/a	n/a	n/a	-999	5	[0, 0, 0]	n/a	FR1	0	R1002P
696.49	0.516	499086	REC_START	n/a	n/a	n/a	-999	5	[0, 0, 0]	n/a	FR1	0	R1002P
697.006	0.828	499344	REC_WORD	0.516	n/a	CORN	-999	5	[0, 0, 0]	n/a	FR1	0	R1002P
697.834	0.969	499758	REC_WORD	1.344	n/a	NET	-999	5	[0, 0, 0]	n/a	FR1	0	R1002P
698.803	3.418	500242	REC_WORD	2.313	n/a	STEM	-999	5	[0, 0, 0]	n/a	FR1	0	R1002P
702.221	10.376	501951	REC_WORD_VV	5.731	n/a	<>	-999	5	[0, 0, 0]	n/a	FR1	0	R1002P
712.597	5.25	507139	REC_WORD_VV	16.107	n/a	<>	-999	5	[0, 0, 0]	n/a	FR1	0	R1002P
717.847	4.536	509764	REC_WORD	21.357	n/a	BALL	-999	5	[0, 0, 0]	n/a	FR1	0	R1002P
722.383	4.118	512031	REC_WORD	25.893	n/a	BRICK	-999	5	[0, 0, 0]	n/a	FR1	0	R1002P
726.501	2.961	514090	REC_END	n/a	n/a	n/a	-999	5	[0, 0, 0]	n/a	FR1	0	R1002P
729.462	0.0	515571	TRIAL	n/a	n/a	n/a	-999	6	[0, 0, 0]	n/a	FR1	0	R1002P
729.462	10.0	515571	COUNTDOWN_START	n/a	n/a	n/a	-999	6	[0, 0, 0]	n/a	FR1	0	R1002P
739.89	0.006	520784	COUNTDOWN_END	n/a	n/a	n/a	-999	6	[0, 0, 0]	n/a	FR1	0	R1002P
739.896	1.6	520787	ORIENT	n/a	n/a	n/a	-999	6	[0, 0, 0]	n/a	FR1	0	R1002P
742.363	1.6	522021	WORD	n/a	wordpools/wordpool_EN.txt	HOUSE	1	6	[0, 0, 0]	n/a	FR1	0	R1002P
744.797	1.6	523238	WORD	n/a	wordpools/wordpool_EN.txt	TRUCK	2	6	[0, 0, 0]	n/a	FR1	0	R1002P
747.264	1.6	524471	WORD	n/a	wordpools/wordpool_EN.txt	FARM	3	6	[0, 0, 0]	n/a	FR1	0	R1002P
749.765	1.6	525722	WORD	n/a	wordpools/wordpool_EN.txt	BLUSH	4	6	[0, 0, 0]	n/a	FR1	0	R1002P
752.365	1.6	527022	WORD	n/a	wordpools/wordpool_EN.txt	SMILE	5	6	[0, 0, 0]	n/a	FR1	0	R1002P
754.849	1.6	528263	WORD	n/a	wordpools/wordpool_EN.txt	SPRING	6	6	[0, 0, 0]	n/a	FR1	0	R1002P
757.3	1.6	529489	WORD	n/a	wordpools/wordpool_EN.txt	VINE	7	6	[0, 0, 0]	n/a	FR1	0	R1002P
759.883	1.6	530780	WORD	n/a	wordpools/wordpool_EN.txt	LIP	8	6	[0, 0, 0]	n/a	FR1	0	R1002P
762.468	1.6	532073	WORD	n/a	wordpools/wordpool_EN.txt	LAWN	9	6	[0, 0, 0]	n/a	FR1	0	R1002P
764.901	1.6	533289	WORD	n/a	wordpools/wordpool_EN.txt	STICK	10	6	[0, 0, 0]	n/a	FR1	0	R1002P
767.385	1.6	534531	WORD	n/a	wordpools/wordpool_EN.txt	TREE	11	6	[0, 0, 0]	n/a	FR1	0	R1002P
769.902	1.6	535790	WORD	n/a	wordpools/wordpool_EN.txt	TENT	12	6	[0, 0, 0]	n/a	FR1	0	R1002P
771.503	0.001	536590	DISTRACT_START	n/a	n/a	n/a	-999	6	[0, 0, 0]	n/a	FR1	0	R1002P
771.504	0.016	536591	START	n/a	n/a	n/a	-999	6	[-999, -999, -999]	n/a	FR1	0	R1002P
771.52	3.416	536599	PROB	3.387	n/a	n/a	-999	6	[6, 2, 1]	9.0	FR1	0	R1002P
774.936	4.851	538306	PROB	4.827	n/a	n/a	-999	6	[5, 9, 4]	18.0	FR1	0	R1002P
779.787	7.402	540732	PROB	7.368	n/a	n/a	-999	6	[7, 1, 3]	11.0	FR1	0	R1002P
787.189	4.406	544433	PROB	4.406	n/a	n/a	-999	6	[5, 5, 3]	13.0	FR1	0	R1002P
791.595	0.011	546635	STOP	n/a	n/a	n/a	-999	6	[-999, -999, -999]	n/a	FR1	0	R1002P
791.606	1.201	546641	DISTRACT_END	n/a	n/a	n/a	-999	6	[0, 0, 0]	n/a	FR1	0	R1002P
792.807	1.78	547241	REC_START	n/a	n/a	n/a	-999	6	[0, 0, 0]	n/a	FR1	0	R1002P
794.587	1.161	548131	REC_WORD	1.78	n/a	HOUSE	-999	6	[0, 0, 0]	n/a	FR1	0	R1002P
795.748	2.34	548712	REC_WORD	2.941	n/a	LAWN	-999	6	[0, 0, 0]	n/a	FR1	0	R1002P
798.088	3.328	549882	REC_WORD	5.281	n/a	VINE	-999	6	[0, 0, 0]	n/a	FR1	0	R1002P
801.416	2.498	551546	REC_WORD	8.609	n/a	TRUCK	-999	6	[0, 0, 0]	n/a	FR1	0	R1002P
803.914	1.654	552795	REC_WORD	11.107	n/a	LIP	-999	6	[0, 0, 0]	n/a	FR1	0	R1002P
805.568	6.328	553622	REC_WORD	12.761	n/a	BLUSH	-999	6	[0, 0, 0]	n/a	FR1	0	R1002P
811.896	10.921	556785	REC_WORD_VV	19.089	n/a	<>	-999	6	[0, 0, 0]	n/a	FR1	0	R1002P
822.817	2.812	562246	REC_END	n/a	n/a	n/a	-999	6	[0, 0, 0]	n/a	FR1	0	R1002P
825.629	0.0	563652	TRIAL	n/a	n/a	n/a	-999	7	[0, 0, 0]	n/a	FR1	0	R1002P
825.629	10.0	563652	COUNTDOWN_START	n/a	n/a	n/a	-999	7	[0, 0, 0]	n/a	FR1	0	R1002P
836.057	0.007	568865	COUNTDOWN_END	n/a	n/a	n/a	-999	7	[0, 0, 0]	n/a	FR1	0	R1002P
836.064	1.6	568869	ORIENT	n/a	n/a	n/a	-999	7	[0, 0, 0]	n/a	FR1	0	R1002P
838.499	1.6	570086	WORD	n/a	wordpools/wordpool_EN.txt	LEG	1	7	[0, 0, 0]	n/a	FR1	0	R1002P
840.915	1.6	571294	WORD	n/a	wordpools/wordpool_EN.txt	PIG	2	7	[0, 0, 0]	n/a	FR1	0	R1002P
843.45	1.6	572562	WORD	n/a	wordpools/wordpool_EN.txt	RAT	3	7	[0, 0, 0]	n/a	FR1	0	R1002P
845.966	1.6	573819	WORD	n/a	wordpools/wordpool_EN.txt	CUBE	4	7	[0, 0, 0]	n/a	FR1	0	R1002P
848.55	1.6	575111	WORD	n/a	wordpools/wordpool_EN.txt	HILL	5	7	[0, 0, 0]	n/a	FR1	0	R1002P
850.934	1.6	576303	WORD	n/a	wordpools/wordpool_EN.txt	LAMB	6	7	[0, 0, 0]	n/a	FR1	0	R1002P
853.469	1.6	577571	WORD	n/a	wordpools/wordpool_EN.txt	ROAD	7	7	[0, 0, 0]	n/a	FR1	0	R1002P
856.018	1.6	578845	WORD	n/a	wordpools/wordpool_EN.txt	FENCE	8	7	[0, 0, 0]	n/a	FR1	0	R1002P
858.453	1.6	580063	WORD	n/a	wordpools/wordpool_EN.txt	COW	9	7	[0, 0, 0]	n/a	FR1	0	R1002P
860.969	1.6	581321	WORD	n/a	wordpools/wordpool_EN.txt	PET	10	7	[0, 0, 0]	n/a	FR1	0	R1002P
863.454	1.6	582563	WORD	n/a	wordpools/wordpool_EN.txt	CAT	11	7	[0, 0, 0]	n/a	FR1	0	R1002P
865.97	1.6	583821	WORD	n/a	wordpools/wordpool_EN.txt	CALF	12	7	[0, 0, 0]	n/a	FR1	0	R1002P
867.587	0.001	584629	DISTRACT_START	n/a	n/a	n/a	-999	7	[0, 0, 0]	n/a	FR1	0	R1002P
867.588	0.016	584630	START	n/a	n/a	n/a	-999	7	[-999, -999, -999]	n/a	FR1	0	R1002P
867.604	3.918	584638	PROB	3.888	n/a	n/a	-999	7	[8, 2, 5]	15.0	FR1	0	R1002P
871.522	5.1	586597	PROB	5.073	n/a	n/a	-999	7	[4, 8, 2]	14.0	FR1	0	R1002P
876.622	5.618	589147	PROB	5.597	n/a	n/a	-999	7	[9, 7, 7]	23.0	FR1	0	R1002P
882.24	7.723	591955	PROB	7.723	n/a	n/a	-999	7	[3, 4, 9]	16.0	FR1	0	R1002P
889.963	0.011	595817	STOP	n/a	n/a	n/a	-999	7	[-999, -999, -999]	n/a	FR1	0	R1002P
889.974	1.135	595822	DISTRACT_END	n/a	n/a	n/a	-999	7	[0, 0, 0]	n/a	FR1	0	R1002P
891.109	0.934	596390	REC_START	n/a	n/a	n/a	-999	7	[0, 0, 0]	n/a	FR1	0	R1002P
892.043	0.751	596857	REC_WORD_VV	0.934	n/a	<>	-999	7	[0, 0, 0]	n/a	FR1	0	R1002P
892.794	0.731	597232	REC_WORD	1.685	n/a	PIG	-999	7	[0, 0, 0]	n/a	FR1	0	R1002P
893.525	2.215	597598	REC_WORD	2.416	n/a	RAT	-999	7	[0, 0, 0]	n/a	FR1	0	R1002P
895.74	1.943	598705	REC_WORD	4.631	n/a	CALF	-999	7	[0, 0, 0]	n/a	FR1	0	R1002P
897.683	0.32	599677	REC_WORD_VV	6.574	n/a	<>	-999	7	[0, 0, 0]	n/a	FR1	0	R1002P
898.003	0.529	599837	REC_WORD	6.894	n/a	COW	-999	7	[0, 0, 0]	n/a	FR1	0	R1002P
898.532	1.714	600101	REC_WORD_VV	7.423	n/a	<>	-999	7	[0, 0, 0]	n/a	FR1	0	R1002P
900.246	3.036	600958	REC_WORD	9.137	n/a	FARM	-999	7	[0, 0, 0]	n/a	FR1	0	R1002P
903.282	7.154	602476	REC_WORD	12.173	n/a	PET	-999	7	[0, 0, 0]	n/a	FR1	0	R1002P
910.436	0.998	606053	REC_WORD	19.327	n/a	FIELD	-999	7	[0, 0, 0]	n/a	FR1	0	R1002P
911.434	8.115	606552	REC_WORD_VV	20.325	n/a	<>	-999	7	[0, 0, 0]	n/a	FR1	0	R1002P
919.549	0.1	610609	REC_WORD_VV	28.44	n/a	<>	-999	7	[0, 0, 0]	n/a	FR1	0	R1002P
919.649	1.47	610659	REC_WORD	28.54	n/a	FENCE	-999	7	[0, 0, 0]	n/a	FR1	0	R1002P
921.119	2.612	611394	REC_END	n/a	n/a	n/a	-999	7	[0, 0, 0]	n/a	FR1	0	R1002P
923.731	0.0	612700	TRIAL	n/a	n/a	n/a	-999	8	[0, 0, 0]	n/a	FR1	0	R1002P
923.731	10.0	612700	COUNTDOWN_START	n/a	n/a	n/a	-999	8	[0, 0, 0]	n/a	FR1	0	R1002P
934.159	0.007	617914	COUNTDOWN_END	n/a	n/a	n/a	-999	8	[0, 0, 0]	n/a	FR1	0	R1002P
934.166	1.6	617917	ORIENT	n/a	n/a	n/a	-999	8	[0, 0, 0]	n/a	FR1	0	R1002P
936.583	1.6	619125	WORD	n/a	wordpools/wordpool_EN.txt	CRANE	1	8	[0, 0, 0]	n/a	FR1	0	R1002P
939.15	1.6	620409	WORD	n/a	wordpools/wordpool_EN.txt	SEAL	2	8	[0, 0, 0]	n/a	FR1	0	R1002P
941.535	1.6	621601	WORD	n/a	wordpools/wordpool_EN.txt	FUDGE	3	8	[0, 0, 0]	n/a	FR1	0	R1002P
944.135	1.6	622901	WORD	n/a	wordpools/wordpool_EN.txt	PEN	4	8	[0, 0, 0]	n/a	FR1	0	R1002P
946.652	1.6	624160	WORD	n/a	wordpools/wordpool_EN.txt	INK	5	8	[0, 0, 0]	n/a	FR1	0	R1002P
949.136	1.6	625402	WORD	n/a	wordpools/wordpool_EN.txt	BANK	6	8	[0, 0, 0]	n/a	FR1	0	R1002P
951.586	1.6	626627	WORD	n/a	wordpools/wordpool_EN.txt	SHEET	7	8	[0, 0, 0]	n/a	FR1	0	R1002P
954.053	1.6	627860	WORD	n/a	wordpools/wordpool_EN.txt	BOOK	8	8	[0, 0, 0]	n/a	FR1	0	R1002P
956.488	1.6	629077	WORD	n/a	wordpools/wordpool_EN.txt	DESK	9	8	[0, 0, 0]	n/a	FR1	0	R1002P
959.087	1.6	630377	WORD	n/a	wordpools/wordpool_EN.txt	WALL	10	8	[0, 0, 0]	n/a	FR1	0	R1002P
961.621	1.6	631644	WORD	n/a	wordpools/wordpool_EN.txt	DITCH	11	8	[0, 0, 0]	n/a	FR1	0	R1002P
964.055	1.6	632861	WORD	n/a	wordpools/wordpool_EN.txt	COIN	12	8	[0, 0, 0]	n/a	FR1	0	R1002P
965.672	0.001	633669	DISTRACT_START	n/a	n/a	n/a	-999	8	[0, 0, 0]	n/a	FR1	0	R1002P
965.673	0.016	633670	START	n/a	n/a	n/a	-999	8	[-999, -999, -999]	n/a	FR1	0	R1002P
965.689	6.551	633678	PROB	6.522	n/a	n/a	-999	8	[4, 8, 1]	13.0	FR1	0	R1002P
972.24	6.269	636953	PROB	6.236	n/a	n/a	-999	8	[8, 5, 6]	19.0	FR1	0	R1002P
978.509	3.533	640087	PROB	3.502	n/a	n/a	-999	8	[1, 7, 7]	15.0	FR1	0	R1002P
982.042	5.665	641854	PROB	5.665	n/a	n/a	-999	8	[9, 2, 2]	13.0	FR1	0	R1002P
987.707	0.019	644686	STOP	n/a	n/a	n/a	-999	8	[-999, -999, -999]	n/a	FR1	0	R1002P
987.726	1.035	644696	DISTRACT_END	n/a	n/a	n/a	-999	8	[0, 0, 0]	n/a	FR1	0	R1002P
988.761	0.974	645213	REC_START	n/a	n/a	n/a	-999	8	[0, 0, 0]	n/a	FR1	0	R1002P
989.735	0.851	645700	REC_WORD_VV	0.974	n/a	<>	-999	8	[0, 0, 0]	n/a	FR1	0	R1002P
990.586	0.621	646126	REC_WORD	1.825	n/a	PEN	-999	8	[0, 0, 0]	n/a	FR1	0	R1002P
991.207	1.417	646436	REC_WORD	2.446	n/a	INK	-999	8	[0, 0, 0]	n/a	FR1	0	R1002P
992.624	0.823	647144	REC_WORD	3.863	n/a	PAPER	-999	8	[0, 0, 0]	n/a	FR1	0	R1002P
993.447	2.361	647556	REC_WORD	4.686	n/a	BANK	-999	8	[0, 0, 0]	n/a	FR1	0	R1002P
995.808	7.238	648736	REC_WORD	7.047	n/a	COIN	-999	8	[0, 0, 0]	n/a	FR1	0	R1002P
1003.046	15.725	652355	REC_WORD	14.285	n/a	WALL	-999	8	[0, 0, 0]	n/a	FR1	0	R1002P
1018.771	2.495	660217	REC_END	n/a	n/a	n/a	-999	8	[0, 0, 0]	n/a	FR1	0	R1002P
1021.266	0.0	661465	TRIAL	n/a	n/a	n/a	-999	9	[0, 0, 0]	n/a	FR1	0	R1002P
1021.266	10.0	661465	COUNTDOWN_START	n/a	n/a	n/a	-999	9	[0, 0, 0]	n/a	FR1	0	R1002P
1031.694	0.007	666678	COUNTDOWN_END	n/a	n/a	n/a	-999	9	[0, 0, 0]	n/a	FR1	0	R1002P
1031.701	1.6	666682	ORIENT	n/a	n/a	n/a	-999	9	[0, 0, 0]	n/a	FR1	0	R1002P
1034.251	1.6	667957	WORD	n/a	wordpools/wordpool_EN.txt	SHEEP	1	9	[0, 0, 0]	n/a	FR1	0	R1002P
1036.869	1.6	669266	WORD	n/a	wordpools/wordpool_EN.txt	GOAT	2	9	[0, 0, 0]	n/a	FR1	0	R1002P
1039.404	1.6	670533	WORD	n/a	wordpools/wordpool_EN.txt	MOOSE	3	9	[0, 0, 0]	n/a	FR1	0	R1002P
1041.886	1.6	671774	WORD	n/a	wordpools/wordpool_EN.txt	MAIL	4	9	[0, 0, 0]	n/a	FR1	0	R1002P
1044.287	1.6	672975	WORD	n/a	wordpools/wordpool_EN.txt	SKI	5	9	[0, 0, 0]	n/a	FR1	0	R1002P
1046.804	1.6	674233	WORD	n/a	wordpools/wordpool_EN.txt	BREAD	6	9	[0, 0, 0]	n/a	FR1	0	R1002P
1049.321	1.6	675491	WORD	n/a	wordpools/wordpool_EN.txt	HAT	7	9	[0, 0, 0]	n/a	FR1	0	R1002P
1051.872	1.6	676767	WORD	n/a	wordpools/wordpool_EN.txt	BADGE	8	9	[0, 0, 0]	n/a	FR1	0	R1002P
1054.372	1.6	678017	WORD	n/a	wordpools/wordpool_EN.txt	RICE	9	9	[0, 0, 0]	n/a	FR1	0	R1002P
1056.756	1.6	679209	WORD	n/a	wordpools/wordpool_EN.txt	SNOW	10	9	[0, 0, 0]	n/a	FR1	0	R1002P
1059.34	1.6	680501	WORD	n/a	wordpools/wordpool_EN.txt	FOG	11	9	[0, 0, 0]	n/a	FR1	0	R1002P
1061.957	1.6	681809	WORD	n/a	wordpools/wordpool_EN.txt	STORE	12	9	[0, 0, 0]	n/a	FR1	0	R1002P
1063.574	0.001	682618	DISTRACT_START	n/a	n/a	n/a	-999	9	[0, 0, 0]	n/a	FR1	0	R1002P
1063.575	0.015	682618	START	n/a	n/a	n/a	-999	9	[-999, -999, -999]	n/a	FR1	0	R1002P
1063.59	7.502	682626	PROB	7.469	n/a	n/a	-999	9	[1, 8, 7]	16.0	FR1	0	R1002P
1071.092	6.101	686376	PROB	6.079	n/a	n/a	-999	9	[5, 3, 9]	16.0	FR1	0	R1002P
1077.193	5.634	689427	PROB	5.602	n/a	n/a	-999	9	[9, 2, 6]	17.0	FR1	0	R1002P
1082.827	5.536	692243	PROB	5.536	n/a	n/a	-999	9	[8, 3, 6]	17.0	FR1	0	R1002P
1088.363	0.015	695011	STOP	n/a	n/a	n/a	-999	9	[-999, -999, -999]	n/a	FR1	0	R1002P
1088.378	1.035	695019	DISTRACT_END	n/a	n/a	n/a	-999	9	[0, 0, 0]	n/a	FR1	0	R1002P
1089.413	4.29	695536	REC_START	n/a	n/a	n/a	-999	9	[0, 0, 0]	n/a	FR1	0	R1002P
1093.703	1.318	697681	REC_WORD_VV	4.29	n/a	<>	-999	9	[0, 0, 0]	n/a	FR1	0	R1002P
1095.021	2.592	698340	REC_WORD_VV	5.608	n/a	<>	-999	9	[0, 0, 0]	n/a	FR1	0	R1002P
1097.613	1.549	699636	REC_WORD_VV	8.2	n/a	<>	-999	9	[0, 0, 0]	n/a	FR1	0	R1002P
1099.162	2.258	700411	REC_WORD	9.749	n/a	GOAT	-999	9	[0, 0, 0]	n/a	FR1	0	R1002P
1101.42	3.533	701539	REC_WORD	12.007	n/a	PIG	-999	9	[0, 0, 0]	n/a	FR1	0	R1002P
1104.953	1.184	703306	REC_WORD	15.54	n/a	SKI	-999	9	[0, 0, 0]	n/a	FR1	0	R1002P
1106.137	3.353	703898	REC_WORD	16.724	n/a	HAT	-999	9	[0, 0, 0]	n/a	FR1	0	R1002P
1109.49	3.621	705574	REC_WORD	20.077	n/a	FOG	-999	9	[0, 0, 0]	n/a	FR1	0	R1002P
1113.111	5.54	707385	REC_WORD	23.698	n/a	PEN	-999	9	[0, 0, 0]	n/a	FR1	0	R1002P
1118.651	0.776	710154	REC_WORD_VV	29.238	n/a	<>	-999	9	[0, 0, 0]	n/a	FR1	0	R1002P
1119.427	2.241	710542	REC_END	n/a	n/a	n/a	-999	9	[0, 0, 0]	n/a	FR1	0	R1002P
1121.668	0.0	711663	TRIAL	n/a	n/a	n/a	-999	10	[0, 0, 0]	n/a	FR1	0	R1002P
1121.668	10.0	711663	COUNTDOWN_START	n/a	n/a	n/a	-999	10	[0, 0, 0]	n/a	FR1	0	R1002P
1132.096	0.007	716877	COUNTDOWN_END	n/a	n/a	n/a	-999	10	[0, 0, 0]	n/a	FR1	0	R1002P
1132.103	1.6	716880	ORIENT	n/a	n/a	n/a	-999	10	[0, 0, 0]	n/a	FR1	0	R1002P
1134.587	1.6	718122	WORD	n/a	wordpools/wordpool_EN.txt	STREET	1	10	[0, 0, 0]	n/a	FR1	0	R1002P
1137.138	1.6	719397	WORD	n/a	wordpools/wordpool_EN.txt	CAGE	2	10	[0, 0, 0]	n/a	FR1	0	R1002P
1139.522	1.6	720589	WORD	n/a	wordpools/wordpool_EN.txt	DIME	3	10	[0, 0, 0]	n/a	FR1	0	R1002P
1142.039	1.6	721848	WORD	n/a	wordpools/wordpool_EN.txt	SLIME	4	10	[0, 0, 0]	n/a	FR1	0	R1002P
1144.507	1.6	723082	WORD	n/a	wordpools/wordpool_EN.txt	PANTS	5	10	[0, 0, 0]	n/a	FR1	0	R1002P
1147.123	1.6	724390	WORD	n/a	wordpools/wordpool_EN.txt	SINK	6	10	[0, 0, 0]	n/a	FR1	0	R1002P
1149.64	1.6	725648	WORD	n/a	wordpools/wordpool_EN.txt	FUR	7	10	[0, 0, 0]	n/a	FR1	0	R1002P
1152.207	1.6	726932	WORD	n/a	wordpools/wordpool_EN.txt	AXE	8	10	[0, 0, 0]	n/a	FR1	0	R1002P
1154.724	1.6	728190	WORD	n/a	wordpools/wordpool_EN.txt	TRAIN	9	10	[0, 0, 0]	n/a	FR1	0	R1002P
1157.175	1.6	729415	WORD	n/a	wordpools/wordpool_EN.txt	SLEEVE	10	10	[0, 0, 0]	n/a	FR1	0	R1002P
1159.692	1.6	730674	WORD	n/a	wordpools/wordpool_EN.txt	TIE	11	10	[0, 0, 0]	n/a	FR1	0	R1002P
1162.226	1.6	731941	WORD	n/a	wordpools/wordpool_EN.txt	HAND	12	10	[0, 0, 0]	n/a	FR1	0	R1002P
1163.843	0.0	732749	DISTRACT_START	n/a	n/a	n/a	-999	10	[0, 0, 0]	n/a	FR1	0	R1002P
1163.843	0.016	732749	START	n/a	n/a	n/a	-999	10	[-999, -999, -999]	n/a	FR1	0	R1002P
1163.859	5.034	732757	PROB	5.0	n/a	n/a	-999	10	[3, 6, 7]	16.0	FR1	0	R1002P
1168.893	3.885	735274	PROB	3.862	n/a	n/a	-999	10	[4, 5, 6]	15.0	FR1	0	R1002P
1172.778	3.651	737217	PROB	3.617	n/a	n/a	-999	10	[1, 1, 6]	8.0	FR1	0	R1002P
1176.429	4.217	739042	PROB	4.182	n/a	n/a	-999	10	[9, 9, 2]	20.0	FR1	0	R1002P
1180.646	3.758	741150	PROB	3.758	n/a	n/a	-999	10	[3, 3, 3]	9.0	FR1	0	R1002P
1184.404	0.01	743029	STOP	n/a	n/a	n/a	-999	10	[-999, -999, -999]	n/a	FR1	0	R1002P
1184.414	1.101	743034	DISTRACT_END	n/a	n/a	n/a	-999	10	[0, 0, 0]	n/a	FR1	0	R1002P
1185.515	0.735	743585	REC_START	n/a	n/a	n/a	-999	10	[0, 0, 0]	n/a	FR1	0	R1002P
1186.25	0.994	743952	REC_WORD	0.735	n/a	SLIME	-999	10	[0, 0, 0]	n/a	FR1	0	R1002P
1187.244	2.16	744449	REC_WORD	1.729	n/a	PANTS	-999	10	[0, 0, 0]	n/a	FR1	0	R1002P
1189.404	1.38	745529	REC_WORD	3.889	n/a	HAT	-999	10	[0, 0, 0]	n/a	FR1	0	R1002P
1190.784	2.345	746219	REC_WORD	5.269	n/a	TIE	-999	10	[0, 0, 0]	n/a	FR1	0	R1002P
1193.129	3.572	747391	REC_WORD_VV	7.614	n/a	<>	-999	10	[0, 0, 0]	n/a	FR1	0	R1002P
1196.701	12.301	749177	REC_WORD	11.186	n/a	CAGE	-999	10	[0, 0, 0]	n/a	FR1	0	R1002P
1209.002	1.0	755328	REC_WORD_VV	23.487	n/a	<>	-999	10	[0, 0, 0]	n/a	FR1	0	R1002P
1210.002	4.533	755827	REC_WORD_VV	24.487	n/a	<>	-999	10	[0, 0, 0]	n/a	FR1	0	R1002P
1214.535	0.989	758094	REC_WORD_VV	29.02	n/a	<>	-999	10	[0, 0, 0]	n/a	FR1	0	R1002P
1215.524	3.162	758588	REC_END	n/a	n/a	n/a	-999	10	[0, 0, 0]	n/a	FR1	0	R1002P
1218.686	10.0	760169	COUNTDOWN_START	n/a	n/a	n/a	-999	11	[0, 0, 0]	n/a	FR1	0	R1002P
1218.686	10.428	760169	TRIAL	n/a	n/a	n/a	-999	11	[0, 0, 0]	n/a	FR1	0	R1002P
1229.114	0.007	765383	COUNTDOWN_END	n/a	n/a	n/a	-999	11	[0, 0, 0]	n/a	FR1	0	R1002P
1229.121	1.6	765386	ORIENT	n/a	n/a	n/a	-999	11	[0, 0, 0]	n/a	FR1	0	R1002P
1231.589	1.6	766620	WORD	n/a	wordpools/wordpool_EN.txt	CHIN	1	11	[0, 0, 0]	n/a	FR1	0	R1002P
1234.206	1.6	767929	WORD	n/a	wordpools/wordpool_EN.txt	STRAW	2	11	[0, 0, 0]	n/a	FR1	0	R1002P
1236.723	1.6	769187	WORD	n/a	wordpools/wordpool_EN.txt	APE	3	11	[0, 0, 0]	n/a	FR1	0	R1002P
1239.14	1.6	770396	WORD	n/a	wordpools/wordpool_EN.txt	CART	4	11	[0, 0, 0]	n/a	FR1	0	R1002P
1241.724	1.6	771688	WORD	n/a	wordpools/wordpool_EN.txt	STEAK	5	11	[0, 0, 0]	n/a	FR1	0	R1002P
1244.308	1.6	772980	WORD	n/a	wordpools/wordpool_EN.txt	VEST	6	11	[0, 0, 0]	n/a	FR1	0	R1002P
1246.725	1.6	774188	WORD	n/a	wordpools/wordpool_EN.txt	DRESS	7	11	[0, 0, 0]	n/a	FR1	0	R1002P
1249.292	1.6	775471	WORD	n/a	wordpools/wordpool_EN.txt	BOWL	8	11	[0, 0, 0]	n/a	FR1	0	R1002P
1251.842	1.6	776746	WORD	n/a	wordpools/wordpool_EN.txt	BENCH	9	11	[0, 0, 0]	n/a	FR1	0	R1002P
1254.293	1.6	777972	WORD	n/a	wordpools/wordpool_EN.txt	SWORD	10	11	[0, 0, 0]	n/a	FR1	0	R1002P
1256.877	1.6	779264	WORD	n/a	wordpools/wordpool_EN.txt	GLOVE	11	11	[0, 0, 0]	n/a	FR1	0	R1002P
1259.462	1.6	780556	WORD	n/a	wordpools/wordpool_EN.txt	GUARD	12	11	[0, 0, 0]	n/a	FR1	0	R1002P
1261.077	0.001	781364	DISTRACT_START	n/a	n/a	n/a	-999	11	[0, 0, 0]	n/a	FR1	0	R1002P
1261.078	0.016	781364	START	n/a	n/a	n/a	-999	11	[-999, -999, -999]	n/a	FR1	0	R1002P
1261.094	5.535	781372	PROB	5.509	n/a	n/a	-999	11	[3, 6, 9]	18.0	FR1	0	R1002P
1266.629	5.951	784139	PROB	5.926	n/a	n/a	-999	11	[6, 8, 3]	17.0	FR1	0	R1002P
1272.58	8.815	787115	PROB	8.815	n/a	n/a	-999	11	[3, 8, 1]	12.0	FR1	0	R1002P
1281.395	0.021	791522	STOP	n/a	n/a	n/a	-999	11	[-999, -999, -999]	n/a	FR1	0	R1002P
1281.416	1.034	791533	DISTRACT_END	n/a	n/a	n/a	-999	11	[0, 0, 0]	n/a	FR1	0	R1002P
1282.45	0.959	792049	REC_START	n/a	n/a	n/a	-999	11	[0, 0, 0]	n/a	FR1	0	R1002P
1283.409	0.959	792529	REC_WORD_VV	0.959	n/a	<>	-999	11	[0, 0, 0]	n/a	FR1	0	R1002P
1284.368	1.098	793008	REC_WORD	1.918	n/a	VEST	-999	11	[0, 0, 0]	n/a	FR1	0	R1002P
1285.466	1.339	793557	REC_WORD	3.016	n/a	SHIRT	-999	11	[0, 0, 0]	n/a	FR1	0	R1002P
1286.805	7.827	794227	REC_WORD	4.355	n/a	APE	-999	11	[0, 0, 0]	n/a	FR1	0	R1002P
1294.632	2.284	798140	REC_WORD_VV	12.182	n/a	<>	-999	11	[0, 0, 0]	n/a	FR1	0	R1002P
1296.916	0.995	799282	REC_WORD	14.466	n/a	DESK	-999	11	[0, 0, 0]	n/a	FR1	0	R1002P
1297.911	6.843	799780	REC_WORD_VV	15.461	n/a	<>	-999	11	[0, 0, 0]	n/a	FR1	0	R1002P
1304.754	0.764	803201	REC_WORD	22.304	n/a	CHIN	-999	11	[0, 0, 0]	n/a	FR1	0	R1002P
1305.518	2.656	803583	REC_WORD	23.068	n/a	STRAW	-999	11	[0, 0, 0]	n/a	FR1	0	R1002P
1308.174	4.285	804911	REC_WORD	25.724	n/a	STEAK	-999	11	[0, 0, 0]	n/a	FR1	0	R1002P
1312.459	2.428	807053	REC_END	n/a	n/a	n/a	-999	11	[0, 0, 0]	n/a	FR1	0	R1002P
1314.887	10.0	808267	COUNTDOWN_START	n/a	n/a	n/a	-999	12	[0, 0, 0]	n/a	FR1	0	R1002P
1314.888	10.427	808268	TRIAL	n/a	n/a	n/a	-999	12	[0, 0, 0]	n/a	FR1	0	R1002P
1325.315	0.008	813481	COUNTDOWN_END	n/a	n/a	n/a	-999	12	[0, 0, 0]	n/a	FR1	0	R1002P
1325.323	1.6	813485	ORIENT	n/a	n/a	n/a	-999	12	[0, 0, 0]	n/a	FR1	0	R1002P
1327.89	1.6	814768	WORD	n/a	wordpools/wordpool_EN.txt	CROW	1	12	[0, 0, 0]	n/a	FR1	0	R1002P
1330.475	1.6	816061	WORD	n/a	wordpools/wordpool_EN.txt	CLOWN	2	12	[0, 0, 0]	n/a	FR1	0	R1002P
1332.974	1.6	817310	WORD	n/a	wordpools/wordpool_EN.txt	SCHOOL	3	12	[0, 0, 0]	n/a	FR1	0	R1002P
1335.426	1.6	818536	WORD	n/a	wordpools/wordpool_EN.txt	PRINCE	4	12	[0, 0, 0]	n/a	FR1	0	R1002P
1337.925	1.6	819785	WORD	n/a	wordpools/wordpool_EN.txt	JUICE	5	12	[0, 0, 0]	n/a	FR1	0	R1002P
1340.359	1.6	821002	WORD	n/a	wordpools/wordpool_EN.txt	BOARD	6	12	[0, 0, 0]	n/a	FR1	0	R1002P
1342.809	1.6	822227	WORD	n/a	wordpools/wordpool_EN.txt	WING	7	12	[0, 0, 0]	n/a	FR1	0	R1002P
1345.26	1.6	823453	WORD	n/a	wordpools/wordpool_EN.txt	DOLL	8	12	[0, 0, 0]	n/a	FR1	0	R1002P
1347.727	1.6	824686	WORD	n/a	wordpools/wordpool_EN.txt	BRANCH	9	12	[0, 0, 0]	n/a	FR1	0	R1002P
1350.194	1.6	825920	WORD	n/a	wordpools/wordpool_EN.txt	HORSE	10	12	[0, 0, 0]	n/a	FR1	0	R1002P
1352.811	1.6	827228	WORD	n/a	wordpools/wordpool_EN.txt	BEAR	11	12	[0, 0, 0]	n/a	FR1	0	R1002P
1355.345	1.6	828495	WORD	n/a	wordpools/wordpool_EN.txt	KITE	12	12	[0, 0, 0]	n/a	FR1	0	R1002P
1356.962	0.001	829303	DISTRACT_START	n/a	n/a	n/a	-999	12	[0, 0, 0]	n/a	FR1	0	R1002P
1356.963	0.016	829304	START	n/a	n/a	n/a	-999	12	[-999, -999, -999]	n/a	FR1	0	R1002P
1356.979	3.817	829312	PROB	3.792	n/a	n/a	-999	12	[6, 2, 1]	9.0	FR1	0	R1002P
1360.796	5.751	831220	PROB	5.728	n/a	n/a	-999	12	[5, 3, 6]	14.0	FR1	0	R1002P
1366.547	4.969	834096	PROB	4.937	n/a	n/a	-999	12	[5, 8, 4]	17.0	FR1	0	R1002P
1371.516	4.266	836580	PROB	4.231	n/a	n/a	-999	12	[4, 2, 5]	11.0	FR1	0	R1002P
1375.782	4.381	838713	PROB	4.381	n/a	n/a	-999	12	[1, 8, 2]	11.0	FR1	0	R1002P
1380.163	0.003	840903	STOP	n/a	n/a	n/a	-999	12	[-999, -999, -999]	n/a	FR1	0	R1002P
1380.166	1.101	840905	DISTRACT_END	n/a	n/a	n/a	-999	12	[0, 0, 0]	n/a	FR1	0	R1002P
1381.267	0.885	841455	REC_START	n/a	n/a	n/a	-999	12	[0, 0, 0]	n/a	FR1	0	R1002P
1382.152	1.446	841898	REC_WORD	0.885	n/a	SCHOOL	-999	12	[0, 0, 0]	n/a	FR1	0	R1002P
1383.598	2.49	842621	REC_WORD	2.331	n/a	CLOWN	-999	12	[0, 0, 0]	n/a	FR1	0	R1002P
1386.088	2.246	843866	REC_WORD	4.821	n/a	BOARD	-999	12	[0, 0, 0]	n/a	FR1	0	R1002P
1388.334	1.782	844989	REC_WORD	7.067	n/a	DOLL	-999	12	[0, 0, 0]	n/a	FR1	0	R1002P
1390.116	1.535	845880	REC_WORD_VV	8.849	n/a	<>	-999	12	[0, 0, 0]	n/a	FR1	0	R1002P
1391.651	19.629	846647	REC_WORD	10.384	n/a	HORSE	-999	12	[0, 0, 0]	n/a	FR1	0	R1002P
1411.28	2.576	856461	REC_END	n/a	n/a	n/a	-999	12	[0, 0, 0]	n/a	FR1	0	R1002P
1413.856	0.0	857749	TRIAL	n/a	n/a	n/a	-999	13	[0, 0, 0]	n/a	FR1	0	R1002P
1413.856	10.0	857749	COUNTDOWN_START	n/a	n/a	n/a	-999	13	[0, 0, 0]	n/a	FR1	0	R1002P
1424.284	0.007	862963	COUNTDOWN_END	n/a	n/a	n/a	-999	13	[0, 0, 0]	n/a	FR1	0	R1002P
1424.291	1.6	862966	ORIENT	n/a	n/a	n/a	-999	13	[0, 0, 0]	n/a	FR1	0	R1002P
1426.692	1.6	864167	WORD	n/a	wordpools/wordpool_EN.txt	JUDGE	1	13	[0, 0, 0]	n/a	FR1	0	R1002P
1429.142	1.6	865391	WORD	n/a	wordpools/wordpool_EN.txt	BOMB	2	13	[0, 0, 0]	n/a	FR1	0	R1002P
1431.743	1.6	866692	WORD	n/a	wordpools/wordpool_EN.txt	EAR	3	13	[0, 0, 0]	n/a	FR1	0	R1002P
1434.243	1.6	867942	WORD	n/a	wordpools/wordpool_EN.txt	TRASH	4	13	[0, 0, 0]	n/a	FR1	0	R1002P
1436.644	1.6	869142	WORD	n/a	wordpools/wordpool_EN.txt	MILK	5	13	[0, 0, 0]	n/a	FR1	0	R1002P
1439.244	1.6	870442	WORD	n/a	wordpools/wordpool_EN.txt	STAR	6	13	[0, 0, 0]	n/a	FR1	0	R1002P
1441.778	1.6	871709	WORD	n/a	wordpools/wordpool_EN.txt	DOG	7	13	[0, 0, 0]	n/a	FR1	0	R1002P
1444.262	1.6	872951	WORD	n/a	wordpools/wordpool_EN.txt	FILM	8	13	[0, 0, 0]	n/a	FR1	0	R1002P
1446.846	1.6	874243	WORD	n/a	wordpools/wordpool_EN.txt	WAVE	9	13	[0, 0, 0]	n/a	FR1	0	R1002P
1449.263	1.6	875451	WORD	n/a	wordpools/wordpool_EN.txt	ZOO	10	13	[0, 0, 0]	n/a	FR1	0	R1002P
1451.797	1.6	876718	WORD	n/a	wordpools/wordpool_EN.txt	POLE	11	13	[0, 0, 0]	n/a	FR1	0	R1002P
1454.297	1.6	877968	WORD	n/a	wordpools/wordpool_EN.txt	ARK	12	13	[0, 0, 0]	n/a	FR1	0	R1002P
1455.914	0.001	878777	DISTRACT_START	n/a	n/a	n/a	-999	13	[0, 0, 0]	n/a	FR1	0	R1002P
1455.915	0.016	878777	START	n/a	n/a	n/a	-999	13	[-999, -999, -999]	n/a	FR1	0	R1002P
1455.931	5.217	878785	PROB	5.192	n/a	n/a	-999	13	[8, 6, 1]	15.0	FR1	0	R1002P
1461.148	3.818	881394	PROB	3.791	n/a	n/a	-999	13	[9, 2, 1]	12.0	FR1	0	R1002P
1464.966	5.384	883302	PROB	5.349	n/a	n/a	-999	13	[6, 1, 8]	15.0	FR1	0	R1002P
1470.35	5.629	885994	PROB	5.629	n/a	n/a	-999	13	[1, 7, 3]	11.0	FR1	0	R1002P
1475.979	0.005	888809	STOP	n/a	n/a	n/a	-999	13	[-999, -999, -999]	n/a	FR1	0	R1002P
1475.984	1.018	888811	DISTRACT_END	n/a	n/a	n/a	-999	13	[0, 0, 0]	n/a	FR1	0	R1002P
1477.002	1.229	889320	REC_START	n/a	n/a	n/a	-999	13	[0, 0, 0]	n/a	FR1	0	R1002P
1478.231	0.901	889935	REC_WORD	1.229	n/a	JUDGE	-999	13	[0, 0, 0]	n/a	FR1	0	R1002P
1479.132	0.979	890385	REC_WORD	2.13	n/a	BOMB	-999	13	[0, 0, 0]	n/a	FR1	0	R1002P
1480.111	0.958	890875	REC_WORD	3.109	n/a	MILK	-999	13	[0, 0, 0]	n/a	FR1	0	R1002P
1481.069	10.332	891354	REC_WORD	4.067	n/a	STAR	-999	13	[0, 0, 0]	n/a	FR1	0	R1002P
1491.401	15.611	896519	REC_WORD	14.399	n/a	SCHOOL	-999	13	[0, 0, 0]	n/a	FR1	0	R1002P
1507.012	2.43	904324	REC_END	n/a	n/a	n/a	-999	13	[0, 0, 0]	n/a	FR1	0	R1002P
1509.442	0.0	905539	TRIAL	n/a	n/a	n/a	-999	14	[0, 0, 0]	n/a	FR1	0	R1002P
1509.442	10.0	905539	COUNTDOWN_START	n/a	n/a	n/a	-999	14	[0, 0, 0]	n/a	FR1	0	R1002P
1519.87	0.006	910753	COUNTDOWN_END	n/a	n/a	n/a	-999	14	[0, 0, 0]	n/a	FR1	0	R1002P
1519.876	1.6	910756	ORIENT	n/a	n/a	n/a	-999	14	[0, 0, 0]	n/a	FR1	0	R1002P
1522.31	1.6	911973	WORD	n/a	wordpools/wordpool_EN.txt	DUCK	1	14	[0, 0, 0]	n/a	FR1	0	R1002P
1524.76	1.6	913198	WORD	n/a	wordpools/wordpool_EN.txt	CASH	2	14	[0, 0, 0]	n/a	FR1	0	R1002P
1527.377	1.6	914506	WORD	n/a	wordpools/wordpool_EN.txt	BARN	3	14	[0, 0, 0]	n/a	FR1	0	R1002P
1529.778	1.6	915707	WORD	n/a	wordpools/wordpool_EN.txt	FROG	4	14	[0, 0, 0]	n/a	FR1	0	R1002P
1532.195	1.6	916915	WORD	n/a	wordpools/wordpool_EN.txt	POND	5	14	[0, 0, 0]	n/a	FR1	0	R1002P
1534.645	1.6	918140	WORD	n/a	wordpools/wordpool_EN.txt	ARM	6	14	[0, 0, 0]	n/a	FR1	0	R1002P
1537.246	1.6	919440	WORD	n/a	wordpools/wordpool_EN.txt	DEER	7	14	[0, 0, 0]	n/a	FR1	0	R1002P
1539.63	1.6	920632	WORD	n/a	wordpools/wordpool_EN.txt	RAKE	8	14	[0, 0, 0]	n/a	FR1	0	R1002P
1542.114	1.6	921874	WORD	n/a	wordpools/wordpool_EN.txt	JEEP	9	14	[0, 0, 0]	n/a	FR1	0	R1002P
1544.664	1.6	923149	WORD	n/a	wordpools/wordpool_EN.txt	PARK	10	14	[0, 0, 0]	n/a	FR1	0	R1002P
1547.048	1.6	924341	WORD	n/a	wordpools/wordpool_EN.txt	WOLF	11	14	[0, 0, 0]	n/a	FR1	0	R1002P
1549.632	1.6	925633	WORD	n/a	wordpools/wordpool_EN.txt	ROPE	12	14	[0, 0, 0]	n/a	FR1	0	R1002P
1551.249	0.0	926442	DISTRACT_START	n/a	n/a	n/a	-999	14	[0, 0, 0]	n/a	FR1	0	R1002P
1551.249	0.016	926442	START	n/a	n/a	n/a	-999	14	[-999, -999, -999]	n/a	FR1	0	R1002P
1551.265	6.985	926450	PROB	6.962	n/a	n/a	-999	14	[8, 6, 3]	15.0	FR1	0	R1002P
1558.25	3.901	929942	PROB	3.873	n/a	n/a	-999	14	[8, 1, 1]	10.0	FR1	0	R1002P
1562.151	7.369	931892	PROB	7.333	n/a	n/a	-999	14	[7, 5, 6]	18.0	FR1	0	R1002P
1569.52	8.763	935577	PROB	8.763	n/a	n/a	-999	14	[8, 6, 1]	15.0	FR1	0	R1002P
1578.283	0.004	939958	STOP	n/a	n/a	n/a	-999	14	[-999, -999, -999]	n/a	FR1	0	R1002P
1578.287	1.152	939960	DISTRACT_END	n/a	n/a	n/a	-999	14	[0, 0, 0]	n/a	FR1	0	R1002P
1579.439	0.923	940536	REC_START	n/a	n/a	n/a	-999	14	[0, 0, 0]	n/a	FR1	0	R1002P
1580.362	0.365	940997	REC_WORD_VV	0.923	n/a	<>	-999	14	[0, 0, 0]	n/a	FR1	0	R1002P
1580.727	2.337	941180	REC_WORD	1.288	n/a	BARN	-999	14	[0, 0, 0]	n/a	FR1	0	R1002P
1583.064	0.634	942348	REC_WORD	3.625	n/a	DUCK	-999	14	[0, 0, 0]	n/a	FR1	0	R1002P
1583.698	3.138	942665	REC_WORD	4.259	n/a	FROG	-999	14	[0, 0, 0]	n/a	FR1	0	R1002P
1586.836	1.053	944234	REC_WORD	7.397	n/a	JEEP	-999	14	[0, 0, 0]	n/a	FR1	0	R1002P
1587.889	3.586	944761	REC_WORD	8.45	n/a	CASH	-999	14	[0, 0, 0]	n/a	FR1	0	R1002P
1591.475	17.974	946554	REC_WORD	12.036	n/a	DEER	-999	14	[0, 0, 0]	n/a	FR1	0	R1002P
1609.449	2.161	955540	REC_END	n/a	n/a	n/a	-999	14	[0, 0, 0]	n/a	FR1	0	R1002P
1611.61	0.0	956620	TRIAL	n/a	n/a	n/a	-999	15	[0, 0, 0]	n/a	FR1	0	R1002P
1611.61	10.0	956620	COUNTDOWN_START	n/a	n/a	n/a	-999	15	[0, 0, 0]	n/a	FR1	0	R1002P
1622.038	0.007	961834	COUNTDOWN_END	n/a	n/a	n/a	-999	15	[0, 0, 0]	n/a	FR1	0	R1002P
1622.045	1.6	961838	ORIENT	n/a	n/a	n/a	-999	15	[0, 0, 0]	n/a	FR1	0	R1002P
1624.446	1.6	963038	WORD	n/a	wordpools/wordpool_EN.txt	ROSE	1	15	[0, 0, 0]	n/a	FR1	0	R1002P
1626.963	1.6	964297	WORD	n/a	wordpools/wordpool_EN.txt	FLAG	2	15	[0, 0, 0]	n/a	FR1	0	R1002P
1629.563	1.6	965596	WORD	n/a	wordpools/wordpool_EN.txt	WHEEL	3	15	[0, 0, 0]	n/a	FR1	0	R1002P
1632.064	1.6	966847	WORD	n/a	wordpools/wordpool_EN.txt	WORLD	4	15	[0, 0, 0]	n/a	FR1	0	R1002P
1634.532	1.6	968081	WORD	n/a	wordpools/wordpool_EN.txt	SPOON	5	15	[0, 0, 0]	n/a	FR1	0	R1002P
1637.165	1.6	969397	WORD	n/a	wordpools/wordpool_EN.txt	CAKE	6	15	[0, 0, 0]	n/a	FR1	0	R1002P
1639.665	1.6	970647	WORD	n/a	wordpools/wordpool_EN.txt	YARD	7	15	[0, 0, 0]	n/a	FR1	0	R1002P
1642.149	1.6	971889	WORD	n/a	wordpools/wordpool_EN.txt	DOCK	8	15	[0, 0, 0]	n/a	FR1	0	R1002P
1644.666	1.6	973148	WORD	n/a	wordpools/wordpool_EN.txt	KEY	9	15	[0, 0, 0]	n/a	FR1	0	R1002P
1647.267	1.6	974448	WORD	n/a	wordpools/wordpool_EN.txt	TOOL	10	15	[0, 0, 0]	n/a	FR1	0	R1002P
1649.867	1.6	975748	WORD	n/a	wordpools/wordpool_EN.txt	STRING	11	15	[0, 0, 0]	n/a	FR1	0	R1002P
1652.452	1.6	977040	WORD	n/a	wordpools/wordpool_EN.txt	HOSE	12	15	[0, 0, 0]	n/a	FR1	0	R1002P
1654.068	0.001	977848	DISTRACT_START	n/a	n/a	n/a	-999	15	[0, 0, 0]	n/a	FR1	0	R1002P
1654.069	0.015	977849	START	n/a	n/a	n/a	-999	15	[-999, -999, -999]	n/a	FR1	0	R1002P
1654.084	6.968	977856	PROB	6.935	n/a	n/a	-999	15	[3, 2, 9]	14.0	FR1	0	R1002P
1661.052	4.951	981340	PROB	4.919	n/a	n/a	-999	15	[6, 4, 8]	18.0	FR1	0	R1002P
1666.003	4.502	983815	PROB	4.481	n/a	n/a	-999	15	[5, 6, 3]	14.0	FR1	0	R1002P
1670.505	5.474	986066	PROB	5.474	n/a	n/a	-999	15	[3, 2, 3]	8.0	FR1	0	R1002P
1675.979	0.01	988803	STOP	n/a	n/a	n/a	-999	15	[-999, -999, -999]	n/a	FR1	0	R1002P
1675.989	1.034	988808	DISTRACT_END	n/a	n/a	n/a	-999	15	[0, 0, 0]	n/a	FR1	0	R1002P
1677.023	2.403	989325	REC_START	n/a	n/a	n/a	-999	15	[0, 0, 0]	n/a	FR1	0	R1002P
1679.426	0.91	990527	REC_WORD	2.403	n/a	KEY	-999	15	[0, 0, 0]	n/a	FR1	0	R1002P
1680.336	9.123	990982	REC_WORD	3.313	n/a	TOOL	-999	15	[0, 0, 0]	n/a	FR1	0	R1002P
1689.459	1.0	995543	REC_WORD_VV	12.436	n/a	<>	-999	15	[0, 0, 0]	n/a	FR1	0	R1002P
1690.459	1.0	996043	REC_WORD_VV	13.436	n/a	<>	-999	15	[0, 0, 0]	n/a	FR1	0	R1002P
1691.459	5.567	996543	REC_WORD_VV	14.436	n/a	<>	-999	15	[0, 0, 0]	n/a	FR1	0	R1002P
1697.026	10.007	999326	REC_WORD_VV	20.003	n/a	<>	-999	15	[0, 0, 0]	n/a	FR1	0	R1002P
1707.033	2.48	1004329	REC_END	n/a	n/a	n/a	-999	15	[0, 0, 0]	n/a	FR1	0	R1002P
1709.513	0.0	1005569	TRIAL	n/a	n/a	n/a	-999	16	[0, 0, 0]	n/a	FR1	0	R1002P
1709.513	10.0	1005569	COUNTDOWN_START	n/a	n/a	n/a	-999	16	[0, 0, 0]	n/a	FR1	0	R1002P
1719.941	0.006	1010783	COUNTDOWN_END	n/a	n/a	n/a	-999	16	[0, 0, 0]	n/a	FR1	0	R1002P
1719.947	1.6	1010786	ORIENT	n/a	n/a	n/a	-999	16	[0, 0, 0]	n/a	FR1	0	R1002P
1722.415	1.6	1012020	WORD	n/a	wordpools/wordpool_EN.txt	BOY	1	16	[0, 0, 0]	n/a	FR1	0	R1002P
1724.881	1.6	1013253	WORD	n/a	wordpools/wordpool_EN.txt	MOUSE	2	16	[0, 0, 0]	n/a	FR1	0	R1002P
1727.466	1.6	1014545	WORD	n/a	wordpools/wordpool_EN.txt	HOOK	3	16	[0, 0, 0]	n/a	FR1	0	R1002P
1729.999	1.6	1015812	WORD	n/a	wordpools/wordpool_EN.txt	WAND	4	16	[0, 0, 0]	n/a	FR1	0	R1002P
1732.549	1.6	1017087	WORD	n/a	wordpools/wordpool_EN.txt	RAIN	5	16	[0, 0, 0]	n/a	FR1	0	R1002P
1735.083	1.6	1018354	WORD	n/a	wordpools/wordpool_EN.txt	FAN	6	16	[0, 0, 0]	n/a	FR1	0	R1002P
1737.684	1.6	1019654	WORD	n/a	wordpools/wordpool_EN.txt	SKY	7	16	[0, 0, 0]	n/a	FR1	0	R1002P
1740.251	1.6	1020937	WORD	n/a	wordpools/wordpool_EN.txt	NAIL	8	16	[0, 0, 0]	n/a	FR1	0	R1002P
1742.734	1.6	1022179	WORD	n/a	wordpools/wordpool_EN.txt	BAT	9	16	[0, 0, 0]	n/a	FR1	0	R1002P
1745.218	1.6	1023421	WORD	n/a	wordpools/wordpool_EN.txt	GRASS	10	16	[0, 0, 0]	n/a	FR1	0	R1002P
1747.635	1.6	1024629	WORD	n/a	wordpools/wordpool_EN.txt	ANT	11	16	[0, 0, 0]	n/a	FR1	0	R1002P
1750.019	1.6	1025821	WORD	n/a	wordpools/wordpool_EN.txt	CHALK	12	16	[0, 0, 0]	n/a	FR1	0	R1002P
1751.636	0.001	1026630	DISTRACT_START	n/a	n/a	n/a	-999	16	[0, 0, 0]	n/a	FR1	0	R1002P
1751.637	0.016	1026630	START	n/a	n/a	n/a	-999	16	[-999, -999, -999]	n/a	FR1	0	R1002P
1751.653	4.551	1026638	PROB	4.518	n/a	n/a	-999	16	[3, 1, 3]	7.0	FR1	0	R1002P
1756.204	8.085	1028913	PROB	8.055	n/a	n/a	-999	16	[6, 7, 5]	18.0	FR1	0	R1002P
1764.289	4.917	1032956	PROB	4.89	n/a	n/a	-999	16	[1, 1, 3]	5.0	FR1	0	R1002P
1769.206	3.485	1035414	PROB	3.485	n/a	n/a	-999	16	[2, 9, 1]	12.0	FR1	0	R1002P
1772.691	0.016	1037157	STOP	n/a	n/a	n/a	-999	16	[-999, -999, -999]	n/a	FR1	0	R1002P
1772.707	1.217	1037165	DISTRACT_END	n/a	n/a	n/a	-999	16	[0, 0, 0]	n/a	FR1	0	R1002P
1773.924	0.681	1037773	REC_START	n/a	n/a	n/a	-999	16	[0, 0, 0]	n/a	FR1	0	R1002P
1774.605	0.75	1038113	REC_WORD_VV	0.681	n/a	<>	-999	16	[0, 0, 0]	n/a	FR1	0	R1002P
1775.355	1.125	1038488	REC_WORD	1.431	n/a	BOY	-999	16	[0, 0, 0]	n/a	FR1	0	R1002P
1776.48	1.115	1039051	REC_WORD	2.556	n/a	HOOK	-999	16	[0, 0, 0]	n/a	FR1	0	R1002P
1777.595	1.676	1039608	REC_WORD	3.671	n/a	WAND	-999	16	[0, 0, 0]	n/a	FR1	0	R1002P
1779.271	4.099	1040446	REC_WORD	5.347	n/a	RAIN	-999	16	[0, 0, 0]	n/a	FR1	0	R1002P
1783.37	8.154	1042496	REC_WORD_VV	9.446	n/a	<>	-999	16	[0, 0, 0]	n/a	FR1	0	R1002P
1791.524	6.993	1046573	REC_WORD	17.6	n/a	NAIL	-999	16	[0, 0, 0]	n/a	FR1	0	R1002P
1798.517	5.421	1050069	REC_WORD	24.593	n/a	SKY	-999	16	[0, 0, 0]	n/a	FR1	0	R1002P
1803.938	2.543	1052779	REC_END	n/a	n/a	n/a	-999	16	[0, 0, 0]	n/a	FR1	0	R1002P
1806.481	0.0	1054051	TRIAL	n/a	n/a	n/a	-999	17	[0, 0, 0]	n/a	FR1	0	R1002P
1806.481	10.0	1054051	COUNTDOWN_START	n/a	n/a	n/a	-999	17	[0, 0, 0]	n/a	FR1	0	R1002P
1816.909	0.006	1059264	COUNTDOWN_END	n/a	n/a	n/a	-999	17	[0, 0, 0]	n/a	FR1	0	R1002P
1816.915	1.6	1059267	ORIENT	n/a	n/a	n/a	-999	17	[0, 0, 0]	n/a	FR1	0	R1002P
1819.299	1.6	1060459	WORD	n/a	wordpools/wordpool_EN.txt	CUP	1	17	[0, 0, 0]	n/a	FR1	0	R1002P
1821.883	1.6	1061751	WORD	n/a	wordpools/wordpool_EN.txt	SOUP	2	17	[0, 0, 0]	n/a	FR1	0	R1002P
1824.333	1.6	1062976	WORD	n/a	wordpools/wordpool_EN.txt	SLUSH	3	17	[0, 0, 0]	n/a	FR1	0	R1002P
1826.883	1.6	1064251	WORD	n/a	wordpools/wordpool_EN.txt	BRUSH	4	17	[0, 0, 0]	n/a	FR1	0	R1002P
1829.402	1.6	1065510	WORD	n/a	wordpools/wordpool_EN.txt	FRUIT	5	17	[0, 0, 0]	n/a	FR1	0	R1002P
1831.901	1.6	1066760	WORD	n/a	wordpools/wordpool_EN.txt	THUMB	6	17	[0, 0, 0]	n/a	FR1	0	R1002P
1834.385	1.6	1068002	WORD	n/a	wordpools/wordpool_EN.txt	SUIT	7	17	[0, 0, 0]	n/a	FR1	0	R1002P
1836.969	1.6	1069294	WORD	n/a	wordpools/wordpool_EN.txt	PLATE	8	17	[0, 0, 0]	n/a	FR1	0	R1002P
1839.504	1.6	1070561	WORD	n/a	wordpools/wordpool_EN.txt	GRAPE	9	17	[0, 0, 0]	n/a	FR1	0	R1002P
1842.103	1.6	1071861	WORD	n/a	wordpools/wordpool_EN.txt	CHEEK	10	17	[0, 0, 0]	n/a	FR1	0	R1002P
1844.704	1.6	1073161	WORD	n/a	wordpools/wordpool_EN.txt	VASE	11	17	[0, 0, 0]	n/a	FR1	0	R1002P
1847.304	1.6	1074461	WORD	n/a	wordpools/wordpool_EN.txt	NOSE	12	17	[0, 0, 0]	n/a	FR1	0	R1002P
1848.921	0.001	1075269	DISTRACT_START	n/a	n/a	n/a	-999	17	[0, 0, 0]	n/a	FR1	0	R1002P
1848.922	0.016	1075270	START	n/a	n/a	n/a	-999	17	[-999, -999, -999]	n/a	FR1	0	R1002P
1848.938	5.684	1075278	PROB	5.649	n/a	n/a	-999	17	[5, 8, 3]	16.0	FR1	0	R1002P
1854.622	9.369	1078120	PROB	9.341	n/a	n/a	-999	17	[6, 8, 5]	21.0	FR1	0	R1002P
1863.991	7.916	1082804	PROB	7.916	n/a	n/a	-999	17	[6, 6, 6]	18.0	FR1	0	R1002P
1871.907	0.018	1086762	STOP	n/a	n/a	n/a	-999	17	[-999, -999, -999]	n/a	FR1	0	R1002P
1871.925	1.218	1086771	DISTRACT_END	n/a	n/a	n/a	-999	17	[0, 0, 0]	n/a	FR1	0	R1002P
1873.143	3.1	1087380	REC_START	n/a	n/a	n/a	-999	17	[0, 0, 0]	n/a	FR1	0	R1002P
1876.243	0.871	1088930	REC_WORD_VV	3.1	n/a	<>	-999	17	[0, 0, 0]	n/a	FR1	0	R1002P
1877.114	0.627	1089365	REC_WORD	3.971	n/a	CUP	-999	17	[0, 0, 0]	n/a	FR1	0	R1002P
1877.741	1.523	1089679	REC_WORD	4.598	n/a	PLATE	-999	17	[0, 0, 0]	n/a	FR1	0	R1002P
1879.264	0.744	1090440	REC_WORD	6.121	n/a	VASE	-999	17	[0, 0, 0]	n/a	FR1	0	R1002P
1880.008	3.062	1090812	REC_WORD	6.865	n/a	GRAPE	-999	17	[0, 0, 0]	n/a	FR1	0	R1002P
1883.07	2.564	1092343	REC_WORD_VV	9.927	n/a	<>	-999	17	[0, 0, 0]	n/a	FR1	0	R1002P
1885.634	9.049	1093625	REC_WORD	12.491	n/a	SLUSH	-999	17	[0, 0, 0]	n/a	FR1	0	R1002P
1894.683	0.84	1098149	REC_WORD	21.54	n/a	BOY	-999	17	[0, 0, 0]	n/a	FR1	0	R1002P
1895.523	5.467	1098569	REC_WORD_VV	22.38	n/a	<>	-999	17	[0, 0, 0]	n/a	FR1	0	R1002P
1900.99	0.991	1101303	REC_WORD	27.847	n/a	SOUP	-999	17	[0, 0, 0]	n/a	FR1	0	R1002P
1901.981	1.172	1101798	REC_WORD	28.838	n/a	SUIT	-999	17	[0, 0, 0]	n/a	FR1	0	R1002P
1903.153	2.762	1102384	REC_END	n/a	n/a	n/a	-999	17	[0, 0, 0]	n/a	FR1	0	R1002P
1905.915	0.0	1103765	TRIAL	n/a	n/a	n/a	-999	18	[0, 0, 0]	n/a	FR1	0	R1002P
1905.915	10.0	1103765	COUNTDOWN_START	n/a	n/a	n/a	-999	18	[0, 0, 0]	n/a	FR1	0	R1002P
1916.343	0.007	1108979	COUNTDOWN_END	n/a	n/a	n/a	-999	18	[0, 0, 0]	n/a	FR1	0	R1002P
1916.35	1.6	1108982	ORIENT	n/a	n/a	n/a	-999	18	[0, 0, 0]	n/a	FR1	0	R1002P
1918.767	1.6	1110191	WORD	n/a	wordpools/wordpool_EN.txt	FOOT	1	18	[0, 0, 0]	n/a	FR1	0	R1002P
1921.184	1.6	1111399	WORD	n/a	wordpools/wordpool_EN.txt	MOON	2	18	[0, 0, 0]	n/a	FR1	0	R1002P
1923.602	1.6	1112608	WORD	n/a	wordpools/wordpool_EN.txt	PALM	3	18	[0, 0, 0]	n/a	FR1	0	R1002P
1926.136	1.6	1113875	WORD	n/a	wordpools/wordpool_EN.txt	STORM	4	18	[0, 0, 0]	n/a	FR1	0	R1002P
1928.536	1.6	1115075	WORD	n/a	wordpools/wordpool_EN.txt	FORK	5	18	[0, 0, 0]	n/a	FR1	0	R1002P
1931.003	1.6	1116308	WORD	n/a	wordpools/wordpool_EN.txt	SNAIL	6	18	[0, 0, 0]	n/a	FR1	0	R1002P
1933.587	1.6	1117600	WORD	n/a	wordpools/wordpool_EN.txt	OAR	7	18	[0, 0, 0]	n/a	FR1	0	R1002P
1936.171	1.6	1118892	WORD	n/a	wordpools/wordpool_EN.txt	CLOUD	8	18	[0, 0, 0]	n/a	FR1	0	R1002P
1938.605	1.6	1120109	WORD	n/a	wordpools/wordpool_EN.txt	BOAT	9	18	[0, 0, 0]	n/a	FR1	0	R1002P
1941.138	1.6	1121375	WORD	n/a	wordpools/wordpool_EN.txt	OAK	10	18	[0, 0, 0]	n/a	FR1	0	R1002P
1943.722	1.6	1122667	WORD	n/a	wordpools/wordpool_EN.txt	STOOL	11	18	[0, 0, 0]	n/a	FR1	0	R1002P
1946.173	1.6	1123893	WORD	n/a	wordpools/wordpool_EN.txt	BEACH	12	18	[0, 0, 0]	n/a	FR1	0	R1002P
1947.79	0.001	1124701	DISTRACT_START	n/a	n/a	n/a	-999	18	[0, 0, 0]	n/a	FR1	0	R1002P
1947.791	0.015	1124702	START	n/a	n/a	n/a	-999	18	[-999, -999, -999]	n/a	FR1	0	R1002P
1947.806	6.768	1124709	PROB	6.741	n/a	n/a	-999	18	[3, 9, 5]	17.0	FR1	0	R1002P
1954.574	4.651	1128093	PROB	4.622	n/a	n/a	-999	18	[3, 6, 8]	17.0	FR1	0	R1002P
1959.225	11.002	1130418	PROB	11.002	n/a	n/a	-999	18	[8, 7, 9]	25.0	FR1	0	R1002P
1970.227	0.017	1135919	STOP	n/a	n/a	n/a	-999	18	[-999, -999, -999]	n/a	FR1	0	R1002P
1970.244	1.202	1135928	DISTRACT_END	n/a	n/a	n/a	-999	18	[0, 0, 0]	n/a	FR1	0	R1002P
1971.446	2.475	1136529	REC_START	n/a	n/a	n/a	-999	18	[0, 0, 0]	n/a	FR1	0	R1002P
1973.921	1.685	1137766	REC_WORD	2.475	n/a	MOON	-999	18	[0, 0, 0]	n/a	FR1	0	R1002P
1975.606	2.034	1138608	REC_WORD	4.16	n/a	BOAT	-999	18	[0, 0, 0]	n/a	FR1	0	R1002P
1977.64	23.815	1139625	REC_WORD	6.194	n/a	OAR	-999	18	[0, 0, 0]	n/a	FR1	0	R1002P
2001.455	2.829	1151532	REC_END	n/a	n/a	n/a	-999	18	[0, 0, 0]	n/a	FR1	0	R1002P
2004.284	0.0	1152947	TRIAL	n/a	n/a	n/a	-999	19	[0, 0, 0]	n/a	FR1	0	R1002P
2004.284	10.0	1152947	COUNTDOWN_START	n/a	n/a	n/a	-999	19	[0, 0, 0]	n/a	FR1	0	R1002P
2014.712	0.007	1158160	COUNTDOWN_END	n/a	n/a	n/a	-999	19	[0, 0, 0]	n/a	FR1	0	R1002P
2014.719	1.6	1158164	ORIENT	n/a	n/a	n/a	-999	19	[0, 0, 0]	n/a	FR1	0	R1002P
2017.119	1.6	1159364	WORD	n/a	wordpools/wordpool_EN.txt	LAKE	1	19	[0, 0, 0]	n/a	FR1	0	R1002P
2019.553	1.6	1160581	WORD	n/a	wordpools/wordpool_EN.txt	MOUTH	2	19	[0, 0, 0]	n/a	FR1	0	R1002P
2022.037	1.6	1161823	WORD	n/a	wordpools/wordpool_EN.txt	PEACH	3	19	[0, 0, 0]	n/a	FR1	0	R1002P
2024.488	1.6	1163048	WORD	n/a	wordpools/wordpool_EN.txt	SQUARE	4	19	[0, 0, 0]	n/a	FR1	0	R1002P
2027.021	1.6	1164315	WORD	n/a	wordpools/wordpool_EN.txt	BLOOM	5	19	[0, 0, 0]	n/a	FR1	0	R1002P
2029.473	1.6	1165540	WORD	n/a	wordpools/wordpool_EN.txt	BIRD	6	19	[0, 0, 0]	n/a	FR1	0	R1002P
2031.939	1.6	1166773	WORD	n/a	wordpools/wordpool_EN.txt	TAIL	7	19	[0, 0, 0]	n/a	FR1	0	R1002P
2034.49	1.6	1168049	WORD	n/a	wordpools/wordpool_EN.txt	LAND	8	19	[0, 0, 0]	n/a	FR1	0	R1002P
2036.89	1.6	1169249	WORD	n/a	wordpools/wordpool_EN.txt	FACE	9	19	[0, 0, 0]	n/a	FR1	0	R1002P
2039.357	1.6	1170482	WORD	n/a	wordpools/wordpool_EN.txt	HAWK	10	19	[0, 0, 0]	n/a	FR1	0	R1002P
2041.891	1.6	1171749	WORD	n/a	wordpools/wordpool_EN.txt	EEL	11	19	[0, 0, 0]	n/a	FR1	0	R1002P
2044.274	1.6	1172941	WORD	n/a	wordpools/wordpool_EN.txt	SIGN	12	19	[0, 0, 0]	n/a	FR1	0	R1002P
2045.891	0.001	1173749	DISTRACT_START	n/a	n/a	n/a	-999	19	[0, 0, 0]	n/a	FR1	0	R1002P
2045.892	0.016	1173750	START	n/a	n/a	n/a	-999	19	[-999, -999, -999]	n/a	FR1	0	R1002P
2045.908	12.352	1173758	PROB	12.319	n/a	n/a	-999	19	[9, 8, 6]	24.0	FR1	0	R1002P
2058.26	7.719	1179933	PROB	7.719	n/a	n/a	-999	19	[3, 4, 1]	8.0	FR1	0	R1002P
2065.979	0.016	1183792	STOP	n/a	n/a	n/a	-999	19	[-999, -999, -999]	n/a	FR1	0	R1002P
2065.995	1.151	1183800	DISTRACT_END	n/a	n/a	n/a	-999	19	[0, 0, 0]	n/a	FR1	0	R1002P
2067.146	1.234	1184376	REC_START	n/a	n/a	n/a	-999	19	[0, 0, 0]	n/a	FR1	0	R1002P
2068.38	2.455	1184993	REC_WORD	1.234	n/a	LAKE	-999	19	[0, 0, 0]	n/a	FR1	0	R1002P
2070.835	1.156	1186220	REC_WORD	3.689	n/a	BIRD	-999	19	[0, 0, 0]	n/a	FR1	0	R1002P
2071.991	3.766	1186798	REC_WORD	4.845	n/a	HAWK	-999	19	[0, 0, 0]	n/a	FR1	0	R1002P
2075.757	4.736	1188681	REC_WORD	8.611	n/a	EEL	-999	19	[0, 0, 0]	n/a	FR1	0	R1002P
2080.493	7.208	1191049	REC_WORD_VV	13.347	n/a	<>	-999	19	[0, 0, 0]	n/a	FR1	0	R1002P
2087.701	2.014	1194653	REC_WORD_VV	20.555	n/a	<>	-999	19	[0, 0, 0]	n/a	FR1	0	R1002P
2089.715	7.438	1195660	REC_WORD	22.569	n/a	SIGN	-999	19	[0, 0, 0]	n/a	FR1	0	R1002P
2097.153	3.399	1199379	REC_END	n/a	n/a	n/a	-999	19	[0, 0, 0]	n/a	FR1	0	R1002P
2100.552	0.0	1201078	TRIAL	n/a	n/a	n/a	-999	20	[0, 0, 0]	n/a	FR1	0	R1002P
2100.552	10.0	1201078	COUNTDOWN_START	n/a	n/a	n/a	-999	20	[0, 0, 0]	n/a	FR1	0	R1002P
2110.98	0.007	1206292	COUNTDOWN_END	n/a	n/a	n/a	-999	20	[0, 0, 0]	n/a	FR1	0	R1002P
2110.987	1.6	1206295	ORIENT	n/a	n/a	n/a	-999	20	[0, 0, 0]	n/a	FR1	0	R1002P
2113.371	1.6	1207487	WORD	n/a	wordpools/wordpool_EN.txt	ROOF	1	20	[0, 0, 0]	n/a	FR1	0	R1002P
2115.888	1.6	1208746	WORD	n/a	wordpools/wordpool_EN.txt	GATE	2	20	[0, 0, 0]	n/a	FR1	0	R1002P
2118.456	1.6	1210030	WORD	n/a	wordpools/wordpool_EN.txt	ROCK	3	20	[0, 0, 0]	n/a	FR1	0	R1002P
2120.939	1.6	1211271	WORD	n/a	wordpools/wordpool_EN.txt	FLAME	4	20	[0, 0, 0]	n/a	FR1	0	R1002P
2123.407	1.6	1212505	WORD	n/a	wordpools/wordpool_EN.txt	CLAY	5	20	[0, 0, 0]	n/a	FR1	0	R1002P
2126.04	1.6	1213821	WORD	n/a	wordpools/wordpool_EN.txt	BOX	6	20	[0, 0, 0]	n/a	FR1	0	R1002P
2128.624	1.6	1215113	WORD	n/a	wordpools/wordpool_EN.txt	HOLE	7	20	[0, 0, 0]	n/a	FR1	0	R1002P
2131.041	1.6	1216322	WORD	n/a	wordpools/wordpool_EN.txt	WHALE	8	20	[0, 0, 0]	n/a	FR1	0	R1002P
2133.574	1.6	1217588	WORD	n/a	wordpools/wordpool_EN.txt	BEAN	9	20	[0, 0, 0]	n/a	FR1	0	R1002P
2136.008	1.6	1218805	WORD	n/a	wordpools/wordpool_EN.txt	THREAD	10	20	[0, 0, 0]	n/a	FR1	0	R1002P
2138.392	1.6	1219997	WORD	n/a	wordpools/wordpool_EN.txt	FOAM	11	20	[0, 0, 0]	n/a	FR1	0	R1002P
2140.826	1.6	1221214	WORD	n/a	wordpools/wordpool_EN.txt	SMOKE	12	20	[0, 0, 0]	n/a	FR1	0	R1002P
2142.427	0.001	1222014	DISTRACT_START	n/a	n/a	n/a	-999	20	[0, 0, 0]	n/a	FR1	0	R1002P
2142.428	0.016	1222015	START	n/a	n/a	n/a	-999	20	[-999, -999, -999]	n/a	FR1	0	R1002P
2142.444	4.433	1222023	PROB	4.407	n/a	n/a	-999	20	[1, 1, 8]	10.0	FR1	0	R1002P
2146.877	5.451	1224239	PROB	5.422	n/a	n/a	-999	20	[9, 7, 2]	18.0	FR1	0	R1002P
2152.328	3.967	1226965	PROB	3.939	n/a	n/a	-999	20	[3, 9, 2]	14.0	FR1	0	R1002P
2156.295	6.276	1228948	PROB	6.276	n/a	n/a	-999	20	[3, 8, 7]	18.0	FR1	0	R1002P
2162.571	0.009	1232086	STOP	n/a	n/a	n/a	-999	20	[-999, -999, -999]	n/a	FR1	0	R1002P
2162.58	1.217	1232090	DISTRACT_END	n/a	n/a	n/a	-999	20	[0, 0, 0]	n/a	FR1	0	R1002P
2163.797	0.771	1232699	REC_START	n/a	n/a	n/a	-999	20	[0, 0, 0]	n/a	FR1	0	R1002P
2164.568	0.805	1233084	REC_WORD	0.771	n/a	CLAY	-999	20	[0, 0, 0]	n/a	FR1	0	R1002P
2165.373	1.267	1233487	REC_WORD	1.576	n/a	ROOF	-999	20	[0, 0, 0]	n/a	FR1	0	R1002P
2166.64	5.169	1234120	REC_WORD	2.843	n/a	GATE	-999	20	[0, 0, 0]	n/a	FR1	0	R1002P
2171.809	22.0	1236705	REC_WORD	8.012	n/a	ROCK	-999	20	[0, 0, 0]	n/a	FR1	0	R1002P
2193.809	3.111	1247704	REC_END	n/a	n/a	n/a	-999	20	[0, 0, 0]	n/a	FR1	0	R1002P
2196.92	0.0	1249259	TRIAL	n/a	n/a	n/a	-999	21	[0, 0, 0]	n/a	FR1	0	R1002P
2196.92	10.0	1249259	COUNTDOWN_START	n/a	n/a	n/a	-999	21	[0, 0, 0]	n/a	FR1	0	R1002P
2207.348	0.007	1254473	COUNTDOWN_END	n/a	n/a	n/a	-999	21	[0, 0, 0]	n/a	FR1	0	R1002P
2207.355	1.6	1254477	ORIENT	n/a	n/a	n/a	-999	21	[0, 0, 0]	n/a	FR1	0	R1002P
2209.939	1.6	1255769	WORD	n/a	wordpools/wordpool_EN.txt	CLOCK	1	21	[0, 0, 0]	n/a	FR1	0	R1002P
2212.372	1.6	1256985	WORD	n/a	wordpools/wordpool_EN.txt	FORT	2	21	[0, 0, 0]	n/a	FR1	0	R1002P
2214.873	1.6	1258235	WORD	n/a	wordpools/wordpool_EN.txt	PIE	3	21	[0, 0, 0]	n/a	FR1	0	R1002P
2217.307	1.6	1259452	WORD	n/a	wordpools/wordpool_EN.txt	VAN	4	21	[0, 0, 0]	n/a	FR1	0	R1002P
2219.891	1.6	1260744	WORD	n/a	wordpools/wordpool_EN.txt	FLEA	5	21	[0, 0, 0]	n/a	FR1	0	R1002P
2222.275	1.6	1261936	WORD	n/a	wordpools/wordpool_EN.txt	SHIELD	6	21	[0, 0, 0]	n/a	FR1	0	R1002P
2224.658	1.6	1263128	WORD	n/a	wordpools/wordpool_EN.txt	WEED	7	21	[0, 0, 0]	n/a	FR1	0	R1002P
2227.142	1.6	1264370	WORD	n/a	wordpools/wordpool_EN.txt	CAR	8	21	[0, 0, 0]	n/a	FR1	0	R1002P
2229.543	1.6	1265570	WORD	n/a	wordpools/wordpool_EN.txt	CONE	9	21	[0, 0, 0]	n/a	FR1	0	R1002P
2231.926	1.6	1266761	WORD	n/a	wordpools/wordpool_EN.txt	JAIL	10	21	[0, 0, 0]	n/a	FR1	0	R1002P
2234.461	1.6	1268029	WORD	n/a	wordpools/wordpool_EN.txt	PHONE	11	21	[0, 0, 0]	n/a	FR1	0	R1002P
2237.077	1.6	1269337	WORD	n/a	wordpools/wordpool_EN.txt	BAND	12	21	[0, 0, 0]	n/a	FR1	0	R1002P
2238.694	0.001	1270145	DISTRACT_START	n/a	n/a	n/a	-999	21	[0, 0, 0]	n/a	FR1	0	R1002P
2238.695	0.016	1270146	START	n/a	n/a	n/a	-999	21	[-999, -999, -999]	n/a	FR1	0	R1002P
2238.711	5.769	1270154	PROB	5.741	n/a	n/a	-999	21	[7, 9, 3]	19.0	FR1	0	R1002P
2244.48	4.984	1273038	PROB	4.964	n/a	n/a	-999	21	[2, 5, 8]	15.0	FR1	0	R1002P
2249.464	5.6	1275530	PROB	5.571	n/a	n/a	-999	21	[4, 9, 6]	19.0	FR1	0	R1002P
2255.064	5.547	1278330	PROB	5.547	n/a	n/a	-999	21	[4, 3, 3]	10.0	FR1	0	R1002P
2260.611	0.004	1281103	STOP	n/a	n/a	n/a	-999	21	[-999, -999, -999]	n/a	FR1	0	R1002P
2260.615	1.034	1281105	DISTRACT_END	n/a	n/a	n/a	-999	21	[0, 0, 0]	n/a	FR1	0	R1002P
2261.649	0.888	1281622	REC_START	n/a	n/a	n/a	-999	21	[0, 0, 0]	n/a	FR1	0	R1002P
2262.537	1.511	1282066	REC_WORD	0.888	n/a	FORT	-999	21	[0, 0, 0]	n/a	FR1	0	R1002P
2264.048	1.349	1282822	REC_WORD	2.399	n/a	PIE	-999	21	[0, 0, 0]	n/a	FR1	0	R1002P
2265.397	1.418	1283496	REC_WORD	3.748	n/a	CLOCK	-999	21	[0, 0, 0]	n/a	FR1	0	R1002P
2266.815	2.886	1284205	REC_WORD	5.166	n/a	VAN	-999	21	[0, 0, 0]	n/a	FR1	0	R1002P
2269.701	1.014	1285648	REC_WORD_VV	8.052	n/a	<>	-999	21	[0, 0, 0]	n/a	FR1	0	R1002P
2270.715	20.25	1286155	REC_WORD	9.066	n/a	JAIL	-999	21	[0, 0, 0]	n/a	FR1	0	R1002P
2290.965	0.698	1296279	REC_WORD	29.316	n/a	CAR	-999	21	[0, 0, 0]	n/a	FR1	0	R1002P
2291.663	2.826	1296628	REC_END	n/a	n/a	n/a	-999	21	[0, 0, 0]	n/a	FR1	0	R1002P
2294.489	0.0	1298041	TRIAL	n/a	n/a	n/a	-999	22	[0, 0, 0]	n/a	FR1	0	R1002P
2294.489	10.0	1298041	COUNTDOWN_START	n/a	n/a	n/a	-999	22	[0, 0, 0]	n/a	FR1	0	R1002P
2304.917	0.006	1303255	COUNTDOWN_END	n/a	n/a	n/a	-999	22	[0, 0, 0]	n/a	FR1	0	R1002P
2304.923	1.6	1303258	ORIENT	n/a	n/a	n/a	-999	22	[0, 0, 0]	n/a	FR1	0	R1002P
2307.357	1.6	1304475	WORD	n/a	wordpools/wordpool_EN.txt	STONE	1	22	[0, 0, 0]	n/a	FR1	0	R1002P
2309.974	1.6	1305783	WORD	n/a	wordpools/wordpool_EN.txt	HORN	2	22	[0, 0, 0]	n/a	FR1	0	R1002P
2312.541	1.6	1307067	WORD	n/a	wordpools/wordpool_EN.txt	SPEAR	3	22	[0, 0, 0]	n/a	FR1	0	R1002P
2315.142	1.6	1308367	WORD	n/a	wordpools/wordpool_EN.txt	BUSH	4	22	[0, 0, 0]	n/a	FR1	0	R1002P
2317.559	1.6	1309576	WORD	n/a	wordpools/wordpool_EN.txt	DRUM	5	22	[0, 0, 0]	n/a	FR1	0	R1002P
2319.943	1.6	1310768	WORD	n/a	wordpools/wordpool_EN.txt	PEAR	6	22	[0, 0, 0]	n/a	FR1	0	R1002P
2322.327	1.6	1311959	WORD	n/a	wordpools/wordpool_EN.txt	SWAMP	7	22	[0, 0, 0]	n/a	FR1	0	R1002P
2324.827	1.6	1313209	WORD	n/a	wordpools/wordpool_EN.txt	FOX	8	22	[0, 0, 0]	n/a	FR1	0	R1002P
2327.278	1.6	1314435	WORD	n/a	wordpools/wordpool_EN.txt	LEAF	9	22	[0, 0, 0]	n/a	FR1	0	R1002P
2329.811	1.6	1315701	WORD	n/a	wordpools/wordpool_EN.txt	CHIEF	10	22	[0, 0, 0]	n/a	FR1	0	R1002P
2332.278	1.6	1316935	WORD	n/a	wordpools/wordpool_EN.txt	FLUTE	11	22	[0, 0, 0]	n/a	FR1	0	R1002P
2334.846	1.6	1318219	WORD	n/a	wordpools/wordpool_EN.txt	PLANT	12	22	[0, 0, 0]	n/a	FR1	0	R1002P
2336.464	0.001	1319028	DISTRACT_START	n/a	n/a	n/a	-999	22	[0, 0, 0]	n/a	FR1	0	R1002P
2336.465	0.015	1319028	START	n/a	n/a	n/a	-999	22	[-999, -999, -999]	n/a	FR1	0	R1002P
2336.48	7.184	1319036	PROB	7.155	n/a	n/a	-999	22	[7, 7, 4]	18.0	FR1	0	R1002P
2343.664	6.819	1322627	PROB	6.796	n/a	n/a	-999	22	[8, 9, 3]	20.0	FR1	0	R1002P
2350.483	4.416	1326037	PROB	4.392	n/a	n/a	-999	22	[4, 4, 2]	10.0	FR1	0	R1002P
2354.899	4.984	1328245	PROB	4.984	n/a	n/a	-999	22	[6, 4, 5]	15.0	FR1	0	R1002P
2359.883	0.017	1330736	STOP	n/a	n/a	n/a	-999	22	[-999, -999, -999]	n/a	FR1	0	R1002P
2359.9	1.101	1330745	DISTRACT_END	n/a	n/a	n/a	-999	22	[0, 0, 0]	n/a	FR1	0	R1002P
2361.001	3.317	1331295	REC_START	n/a	n/a	n/a	-999	22	[0, 0, 0]	n/a	FR1	0	R1002P
2364.318	1.0	1332954	REC_WORD_VV	3.317	n/a	<>	-999	22	[0, 0, 0]	n/a	FR1	0	R1002P
2365.318	9.069	1333454	REC_WORD_VV	4.317	n/a	<>	-999	22	[0, 0, 0]	n/a	FR1	0	R1002P
2374.387	5.387	1337988	REC_WORD	13.386	n/a	HORN	-999	22	[0, 0, 0]	n/a	FR1	0	R1002P
2379.774	11.241	1340681	REC_WORD	18.773	n/a	STONE	-999	22	[0, 0, 0]	n/a	FR1	0	R1002P
2391.015	3.275	1346302	REC_END	n/a	n/a	n/a	-999	22	[0, 0, 0]	n/a	FR1	0	R1002P
2394.29	10.0	1347939	COUNTDOWN_START	n/a	n/a	n/a	-999	23	[0, 0, 0]	n/a	FR1	0	R1002P
2394.29	10.428	1347939	TRIAL	n/a	n/a	n/a	-999	23	[0, 0, 0]	n/a	FR1	0	R1002P
2404.718	0.007	1353153	COUNTDOWN_END	n/a	n/a	n/a	-999	23	[0, 0, 0]	n/a	FR1	0	R1002P
2404.725	1.6	1353156	ORIENT	n/a	n/a	n/a	-999	23	[0, 0, 0]	n/a	FR1	0	R1002P
2407.126	1.6	1354357	WORD	n/a	wordpools/wordpool_EN.txt	GEESE	1	23	[0, 0, 0]	n/a	FR1	0	R1002P
2409.511	1.6	1355549	WORD	n/a	wordpools/wordpool_EN.txt	SKUNK	2	23	[0, 0, 0]	n/a	FR1	0	R1002P
2412.094	1.6	1356840	WORD	n/a	wordpools/wordpool_EN.txt	RIB	3	23	[0, 0, 0]	n/a	FR1	0	R1002P
2414.511	1.6	1358049	WORD	n/a	wordpools/wordpool_EN.txt	WORM	4	23	[0, 0, 0]	n/a	FR1	0	R1002P
2416.994	1.6	1359290	WORD	n/a	wordpools/wordpool_EN.txt	LOCK	5	23	[0, 0, 0]	n/a	FR1	0	R1002P
2419.446	1.6	1360516	WORD	n/a	wordpools/wordpool_EN.txt	SPONGE	6	23	[0, 0, 0]	n/a	FR1	0	R1002P
2422.029	1.6	1361808	WORD	n/a	wordpools/wordpool_EN.txt	OWL	7	23	[0, 0, 0]	n/a	FR1	0	R1002P
2424.612	1.6	1363099	WORD	n/a	wordpools/wordpool_EN.txt	HEN	8	23	[0, 0, 0]	n/a	FR1	0	R1002P
2427.029	1.6	1364308	WORD	n/a	wordpools/wordpool_EN.txt	PIN	9	23	[0, 0, 0]	n/a	FR1	0	R1002P
2429.547	1.6	1365566	WORD	n/a	wordpools/wordpool_EN.txt	FOOD	10	23	[0, 0, 0]	n/a	FR1	0	R1002P
2432.064	1.6	1366825	WORD	n/a	wordpools/wordpool_EN.txt	FISH	11	23	[0, 0, 0]	n/a	FR1	0	R1002P
2434.614	1.6	1368100	WORD	n/a	wordpools/wordpool_EN.txt	WEB	12	23	[0, 0, 0]	n/a	FR1	0	R1002P
2436.231	0.001	1368908	DISTRACT_START	n/a	n/a	n/a	-999	23	[0, 0, 0]	n/a	FR1	0	R1002P
2436.232	0.016	1368909	START	n/a	n/a	n/a	-999	23	[-999, -999, -999]	n/a	FR1	0	R1002P
2436.248	5.068	1368917	PROB	5.043	n/a	n/a	-999	23	[9, 1, 4]	14.0	FR1	0	R1002P
2441.316	8.735	1371451	PROB	8.711	n/a	n/a	-999	23	[2, 4, 3]	9.0	FR1	0	R1002P
2450.051	7.664	1375818	PROB	7.664	n/a	n/a	-999	23	[5, 9, 4]	18.0	FR1	0	R1002P
2457.715	0.003	1379650	STOP	n/a	n/a	n/a	-999	23	[-999, -999, -999]	n/a	FR1	0	R1002P
2457.718	1.119	1379651	DISTRACT_END	n/a	n/a	n/a	-999	23	[0, 0, 0]	n/a	FR1	0	R1002P
2458.837	3.068	1380211	REC_START	n/a	n/a	n/a	-999	23	[0, 0, 0]	n/a	FR1	0	R1002P
2461.905	0.645	1381745	REC_WORD_VV	3.068	n/a	<>	-999	23	[0, 0, 0]	n/a	FR1	0	R1002P
2462.55	1.316	1382067	REC_WORD	3.713	n/a	GEESE	-999	23	[0, 0, 0]	n/a	FR1	0	R1002P
2463.866	2.596	1382725	REC_WORD	5.029	n/a	WORM	-999	23	[0, 0, 0]	n/a	FR1	0	R1002P
2466.462	7.99	1384023	REC_WORD	7.625	n/a	WEB	-999	23	[0, 0, 0]	n/a	FR1	0	R1002P
2474.452	14.395	1388018	REC_WORD_VV	15.615	n/a	<>	-999	23	[0, 0, 0]	n/a	FR1	0	R1002P
2488.847	2.562	1395215	REC_END	n/a	n/a	n/a	-999	23	[0, 0, 0]	n/a	FR1	0	R1002P
2491.409	10.0	1396496	COUNTDOWN_START	n/a	n/a	n/a	-999	24	[0, 0, 0]	n/a	FR1	0	R1002P
2491.41	10.427	1396496	TRIAL	n/a	n/a	n/a	-999	24	[0, 0, 0]	n/a	FR1	0	R1002P
2501.837	0.007	1401710	COUNTDOWN_END	n/a	n/a	n/a	-999	24	[0, 0, 0]	n/a	FR1	0	R1002P
2501.844	1.6	1401713	ORIENT	n/a	n/a	n/a	-999	24	[0, 0, 0]	n/a	FR1	0	R1002P
2504.377	1.6	1402979	WORD	n/a	wordpools/wordpool_EN.txt	GOLD	1	24	[0, 0, 0]	n/a	FR1	0	R1002P
2506.811	1.6	1404196	WORD	n/a	wordpools/wordpool_EN.txt	LAMP	2	24	[0, 0, 0]	n/a	FR1	0	R1002P
2509.228	1.6	1405405	WORD	n/a	wordpools/wordpool_EN.txt	MOLE	3	24	[0, 0, 0]	n/a	FR1	0	R1002P
2511.812	1.6	1406697	WORD	n/a	wordpools/wordpool_EN.txt	CROWN	4	24	[0, 0, 0]	n/a	FR1	0	R1002P
2514.346	1.6	1407964	WORD	n/a	wordpools/wordpool_EN.txt	SHIP	5	24	[0, 0, 0]	n/a	FR1	0	R1002P
2516.913	1.6	1409247	WORD	n/a	wordpools/wordpool_EN.txt	MOTH	6	24	[0, 0, 0]	n/a	FR1	0	R1002P
2519.481	1.6	1410531	WORD	n/a	wordpools/wordpool_EN.txt	NEST	7	24	[0, 0, 0]	n/a	FR1	0	R1002P
2521.864	1.6	1411722	WORD	n/a	wordpools/wordpool_EN.txt	BEE	8	24	[0, 0, 0]	n/a	FR1	0	R1002P
2524.432	1.6	1413006	WORD	n/a	wordpools/wordpool_EN.txt	EGG	9	24	[0, 0, 0]	n/a	FR1	0	R1002P
2526.848	1.6	1414214	WORD	n/a	wordpools/wordpool_EN.txt	TOAD	10	24	[0, 0, 0]	n/a	FR1	0	R1002P
2529.249	1.6	1415415	WORD	n/a	wordpools/wordpool_EN.txt	SHELL	11	24	[0, 0, 0]	n/a	FR1	0	R1002P
2531.699	1.6	1416640	WORD	n/a	wordpools/wordpool_EN.txt	HOOF	12	24	[0, 0, 0]	n/a	FR1	0	R1002P
2533.316	0.001	1417448	DISTRACT_START	n/a	n/a	n/a	-999	24	[0, 0, 0]	n/a	FR1	0	R1002P
2533.317	0.016	1417449	START	n/a	n/a	n/a	-999	24	[-999, -999, -999]	n/a	FR1	0	R1002P
2533.333	7.102	1417457	PROB	7.079	n/a	n/a	-999	24	[2, 2, 3]	7.0	FR1	0	R1002P
2540.435	4.018	1421007	PROB	3.993	n/a	n/a	-999	24	[6, 9, 1]	16.0	FR1	0	R1002P
2544.453	3.466	1423016	PROB	3.438	n/a	n/a	-999	24	[4, 1, 2]	6.0	FR1	0	R1002P
2547.919	3.834	1424749	PROB	3.804	n/a	n/a	-999	24	[2, 8, 2]	12.0	FR1	0	R1002P
2551.753	7.667	1426666	PROB	7.667	n/a	n/a	-999	24	[8, 4, 8]	20.0	FR1	0	R1002P
2559.42	0.019	1430499	STOP	n/a	n/a	n/a	-999	24	[-999, -999, -999]	n/a	FR1	0	R1002P
2559.439	1.15	1430509	DISTRACT_END	n/a	n/a	n/a	-999	24	[0, 0, 0]	n/a	FR1	0	R1002P
2560.589	1.849	1431084	REC_START	n/a	n/a	n/a	-999	24	[0, 0, 0]	n/a	FR1	0	R1002P
2562.438	1.05	1432008	REC_WORD	1.849	n/a	GOLD	-999	24	[0, 0, 0]	n/a	FR1	0	R1002P
2563.488	3.067	1432533	REC_WORD	2.899	n/a	LAMP	-999	24	[0, 0, 0]	n/a	FR1	0	R1002P
2566.555	2.239	1434067	REC_WORD_VV	5.966	n/a	<>	-999	24	[0, 0, 0]	n/a	FR1	0	R1002P
2568.794	5.976	1435186	REC_WORD	8.205	n/a	MOTH	-999	24	[0, 0, 0]	n/a	FR1	0	R1002P
2574.77	2.197	1438174	REC_WORD	14.181	n/a	POT	-999	24	[0, 0, 0]	n/a	FR1	0	R1002P
2576.967	13.632	1439272	REC_WORD_VV	16.378	n/a	<>	-999	24	[0, 0, 0]	n/a	FR1	0	R1002P
2590.599	2.945	1446088	REC_END	n/a	n/a	n/a	-999	24	[0, 0, 0]	n/a	FR1	0	R1002P
2593.544	0.0	1447560	TRIAL	n/a	n/a	n/a	-999	25	[0, 0, 0]	n/a	FR1	0	R1002P
2593.544	10.0	1447560	COUNTDOWN_START	n/a	n/a	n/a	-999	25	[0, 0, 0]	n/a	FR1	0	R1002P
2603.972	0.007	1452774	COUNTDOWN_END	n/a	n/a	n/a	-999	25	[0, 0, 0]	n/a	FR1	0	R1002P
2603.979	1.6	1452778	ORIENT	n/a	n/a	n/a	-999	25	[0, 0, 0]	n/a	FR1	0	R1002P
2606.414	1.6	1453995	WORD	n/a	wordpools/wordpool_EN.txt	GLASS	1	25	[0, 0, 0]	n/a	FR1	0	R1002P
2608.914	1.6	1455245	WORD	n/a	wordpools/wordpool_EN.txt	MUG	2	25	[0, 0, 0]	n/a	FR1	0	R1002P
2611.482	1.6	1456529	WORD	n/a	wordpools/wordpool_EN.txt	SOCK	3	25	[0, 0, 0]	n/a	FR1	0	R1002P
2613.948	1.6	1457762	WORD	n/a	wordpools/wordpool_EN.txt	FLOOR	4	25	[0, 0, 0]	n/a	FR1	0	R1002P
2616.549	1.6	1459062	WORD	n/a	wordpools/wordpool_EN.txt	SHOE	5	25	[0, 0, 0]	n/a	FR1	0	R1002P
2619.132	1.6	1460354	WORD	n/a	wordpools/wordpool_EN.txt	JAR	6	25	[0, 0, 0]	n/a	FR1	0	R1002P
2621.583	1.6	1461579	WORD	n/a	wordpools/wordpool_EN.txt	ELF	7	25	[0, 0, 0]	n/a	FR1	0	R1002P
2624.067	1.6	1462821	WORD	n/a	wordpools/wordpool_EN.txt	TANK	8	25	[0, 0, 0]	n/a	FR1	0	R1002P
2626.55	1.6	1464063	WORD	n/a	wordpools/wordpool_EN.txt	POOL	9	25	[0, 0, 0]	n/a	FR1	0	R1002P
2629.001	1.6	1465288	WORD	n/a	wordpools/wordpool_EN.txt	ROOM	10	25	[0, 0, 0]	n/a	FR1	0	R1002P
2631.519	1.6	1466547	WORD	n/a	wordpools/wordpool_EN.txt	CANE	11	25	[0, 0, 0]	n/a	FR1	0	R1002P
2634.052	1.6	1467813	WORD	n/a	wordpools/wordpool_EN.txt	RUG	12	25	[0, 0, 0]	n/a	FR1	0	R1002P
2635.669	0.001	1468622	DISTRACT_START	n/a	n/a	n/a	-999	25	[0, 0, 0]	n/a	FR1	0	R1002P
2635.67	0.015	1468622	START	n/a	n/a	n/a	-999	25	[-999, -999, -999]	n/a	FR1	0	R1002P
2635.685	6.468	1468630	PROB	6.438	n/a	n/a	-999	25	[6, 5, 2]	13.0	FR1	0	R1002P
2642.153	8.168	1471864	PROB	8.138	n/a	n/a	-999	25	[7, 9, 6]	22.0	FR1	0	R1002P
2650.321	4.635	1475947	PROB	4.61	n/a	n/a	-999	25	[3, 7, 4]	14.0	FR1	0	R1002P
2654.956	6.087	1478265	PROB	6.087	n/a	n/a	-999	25	[8, 6, 3]	17.0	FR1	0	R1002P
2661.043	0.014	1481308	STOP	n/a	n/a	n/a	-999	25	[-999, -999, -999]	n/a	FR1	0	R1002P
2661.057	1.117	1481315	DISTRACT_END	n/a	n/a	n/a	-999	25	[0, 0, 0]	n/a	FR1	0	R1002P
2662.174	0.881	1481874	REC_START	n/a	n/a	n/a	-999	25	[0, 0, 0]	n/a	FR1	0	R1002P
2663.055	1.078	1482314	REC_WORD	0.881	n/a	GLASS	-999	25	[0, 0, 0]	n/a	FR1	0	R1002P
2664.133	7.867	1482853	REC_WORD	1.959	n/a	FLOOR	-999	25	[0, 0, 0]	n/a	FR1	0	R1002P
2672.0	0.89	1486786	REC_WORD	9.826	n/a	MUG	-999	25	[0, 0, 0]	n/a	FR1	0	R1002P
2672.89	9.715	1487231	REC_WORD_VV	10.716	n/a	<>	-999	25	[0, 0, 0]	n/a	FR1	0	R1002P
2682.605	9.583	1492089	REC_WORD	20.431	n/a	CANE	-999	25	[0, 0, 0]	n/a	FR1	0	R1002P
2692.188	16.912	1496880	REC_END	n/a	n/a	n/a	-999	25	[0, 0, 0]	n/a	FR1	0	R1002P
2709.1	0.0	1505335	SESS_END	n/a	n/a	n/a	-999	25	[0, 0, 0]	n/a	FR1	0	R1002P
