onset	duration	sample	trial_type	response_time	stim_file	item_name	serialpos	list	test	answer	experiment	session	subject
0.0	31.367	32498	SESS_START	n/a	n/a	n/a	-999	-999	[0, 0, 0]	n/a	FR1	0	R1042M
31.367	10.0	48180	COUNTDOWN_START	n/a	n/a	n/a	-999	-999	[0, 0, 0]	n/a	FR1	0	R1042M
41.795	3.709	53393	COUNTDOWN_END	n/a	n/a	n/a	-999	-999	[0, 0, 0]	n/a	FR1	0	R1042M
45.504	1.6	55247	PRACTICE_WORD	n/a	n/a	COTTON	1	-1	[0, 0, 0]	n/a	FR1	0	R1042M
47.988	1.6	56489	PRACTICE_WORD	n/a	n/a	RING	2	-1	[0, 0, 0]	n/a	FR1	0	R1042M
50.471	1.6	57731	PRACTICE_WORD	n/a	n/a	RHINO	3	-1	[0, 0, 0]	n/a	FR1	0	R1042M
52.955	1.6	58973	PRACTICE_WORD	n/a	n/a	WATCH	4	-1	[0, 0, 0]	n/a	FR1	0	R1042M
55.422	1.6	60206	PRACTICE_WORD	n/a	n/a	IRON	5	-1	[0, 0, 0]	n/a	FR1	0	R1042M
57.89	1.6	61440	PRACTICE_WORD	n/a	n/a	BEAM	6	-1	[0, 0, 0]	n/a	FR1	0	R1042M
60.29	1.6	62640	PRACTICE_WORD	n/a	n/a	ATTIC	7	-1	[0, 0, 0]	n/a	FR1	0	R1042M
62.791	1.6	63890	PRACTICE_WORD	n/a	n/a	TONGUE	8	-1	[0, 0, 0]	n/a	FR1	0	R1042M
65.34	1.6	65164	PRACTICE_WORD	n/a	n/a	FLOOD	9	-1	[0, 0, 0]	n/a	FR1	0	R1042M
67.742	1.6	66365	PRACTICE_WORD	n/a	n/a	CHEST	10	-1	[0, 0, 0]	n/a	FR1	0	R1042M
70.341	1.6	67665	PRACTICE_WORD	n/a	n/a	WAGON	11	-1	[0, 0, 0]	n/a	FR1	0	R1042M
72.809	1.6	68899	PRACTICE_WORD	n/a	n/a	CAMEL	12	-1	[0, 0, 0]	n/a	FR1	0	R1042M
74.425	0.001	69706	PRACTICE_DISTRACT_START	n/a	n/a	n/a	-999	-1	[0, 0, 0]	n/a	FR1	0	R1042M
74.426	0.016	69707	START	n/a	n/a	n/a	-999	-1	[-999, -999, -999]	n/a	FR1	0	R1042M
74.442	3.518	69715	PROB	3.491	n/a	n/a	-999	-1	[8, 1, 4]	13.0	FR1	0	R1042M
77.96	2.45	71474	PROB	2.42	n/a	n/a	-999	-1	[3, 8, 7]	18.0	FR1	0	R1042M
80.41	4.368	72699	PROB	4.339	n/a	n/a	-999	-1	[9, 4, 5]	18.0	FR1	0	R1042M
84.778	4.451	74882	PROB	4.427	n/a	n/a	-999	-1	[9, 8, 6]	23.0	FR1	0	R1042M
89.229	2.384	77108	PROB	2.36	n/a	n/a	-999	-1	[8, 3, 1]	12.0	FR1	0	R1042M
91.613	2.3	78300	PROB	2.28	n/a	n/a	-999	-1	[8, 6, 1]	15.0	FR1	0	R1042M
93.913	2.62	79449	PROB	2.62	n/a	n/a	-999	-1	[1, 2, 7]	10.0	FR1	0	R1042M
96.533	0.014	80759	STOP	n/a	n/a	n/a	-999	-1	[-999, -999, -999]	n/a	FR1	0	R1042M
96.547	0.569	80766	PRACTICE_DISTRACT_END	n/a	n/a	n/a	-999	-1	[0, 0, 0]	n/a	FR1	0	R1042M
97.116	30.515	81051	PRACTICE_REC_START	n/a	n/a	n/a	-999	-1	[0, 0, 0]	n/a	FR1	0	R1042M
127.631	19.542	96307	PRACTICE_REC_END	n/a	n/a	n/a	-999	-1	[0, 0, 0]	n/a	FR1	0	R1042M
147.173	10.0	106077	COUNTDOWN_START	n/a	n/a	n/a	-999	1	[0, 0, 0]	n/a	FR1	0	R1042M
147.174	10.427	106077	TRIAL	n/a	n/a	n/a	-999	1	[0, 0, 0]	n/a	FR1	0	R1042M
157.601	0.008	111290	COUNTDOWN_END	n/a	n/a	n/a	-999	1	[0, 0, 0]	n/a	FR1	0	R1042M
157.609	1.6	111294	ORIENT	n/a	n/a	n/a	-999	1	[0, 0, 0]	n/a	FR1	0	R1042M
160.109	1.6	112544	WORD	n/a	wordpools/wordpool_EN.txt	SEAL	1	1	[0, 0, 0]	n/a	FR1	0	R1042M
162.676	1.6	113827	WORD	n/a	wordpools/wordpool_EN.txt	BAND	2	1	[0, 0, 0]	n/a	FR1	0	R1042M
165.093	1.6	115036	WORD	n/a	wordpools/wordpool_EN.txt	WORLD	3	1	[0, 0, 0]	n/a	FR1	0	R1042M
167.627	1.6	116303	WORD	n/a	wordpools/wordpool_EN.txt	FRUIT	4	1	[0, 0, 0]	n/a	FR1	0	R1042M
170.195	1.6	117586	WORD	n/a	wordpools/wordpool_EN.txt	SWORD	5	1	[0, 0, 0]	n/a	FR1	0	R1042M
172.712	1.6	118845	WORD	n/a	wordpools/wordpool_EN.txt	JAR	6	1	[0, 0, 0]	n/a	FR1	0	R1042M
175.295	1.6	120136	WORD	n/a	wordpools/wordpool_EN.txt	BREAD	7	1	[0, 0, 0]	n/a	FR1	0	R1042M
177.879	1.6	121428	WORD	n/a	wordpools/wordpool_EN.txt	CUP	8	1	[0, 0, 0]	n/a	FR1	0	R1042M
180.396	1.6	122686	WORD	n/a	wordpools/wordpool_EN.txt	WALL	9	1	[0, 0, 0]	n/a	FR1	0	R1042M
182.78	1.6	123878	WORD	n/a	wordpools/wordpool_EN.txt	STICK	10	1	[0, 0, 0]	n/a	FR1	0	R1042M
185.347	1.6	125162	WORD	n/a	wordpools/wordpool_EN.txt	ROSE	11	1	[0, 0, 0]	n/a	FR1	0	R1042M
187.848	1.6	126412	WORD	n/a	wordpools/wordpool_EN.txt	LAMP	12	1	[0, 0, 0]	n/a	FR1	0	R1042M
189.464	0.001	127220	DISTRACT_START	n/a	n/a	n/a	-999	1	[0, 0, 0]	n/a	FR1	0	R1042M
189.465	0.016	127220	START	n/a	n/a	n/a	-999	1	[-999, -999, -999]	n/a	FR1	0	R1042M
189.481	3.101	127228	PROB	3.068	n/a	n/a	-999	1	[5, 4, 4]	13.0	FR1	0	R1042M
192.582	2.651	128779	PROB	2.623	n/a	n/a	-999	1	[9, 5, 9]	23.0	FR1	0	R1042M
195.233	2.334	130104	PROB	2.3	n/a	n/a	-999	1	[4, 6, 2]	12.0	FR1	0	R1042M
197.567	4.034	131271	PROB	3.998	n/a	n/a	-999	1	[8, 5, 8]	2.0	FR1	0	R1042M
201.601	4.451	133288	PROB	4.428	n/a	n/a	-999	1	[4, 1, 5]	10.0	FR1	0	R1042M
206.052	2.867	135513	PROB	2.841	n/a	n/a	-999	1	[7, 3, 6]	16.0	FR1	0	R1042M
208.919	4.158	136946	PROB	4.158	n/a	n/a	-999	1	[9, 2, 7]	18.0	FR1	0	R1042M
213.077	0.009	139025	STOP	n/a	n/a	n/a	-999	1	[-999, -999, -999]	n/a	FR1	0	R1042M
213.086	1.134	139030	DISTRACT_END	n/a	n/a	n/a	-999	1	[0, 0, 0]	n/a	FR1	0	R1042M
214.22	1.496	139597	REC_START	n/a	n/a	n/a	-999	1	[0, 0, 0]	n/a	FR1	0	R1042M
215.716	1.283	140345	REC_WORD	1.496	n/a	SEAL	-999	1	[0, 0, 0]	n/a	FR1	0	R1042M
216.999	0.881	140986	REC_WORD	2.779	n/a	WALL	-999	1	[0, 0, 0]	n/a	FR1	0	R1042M
217.88	1.191	141427	REC_WORD	3.66	n/a	WORLD	-999	1	[0, 0, 0]	n/a	FR1	0	R1042M
219.071	1.329	142022	REC_WORD	4.851	n/a	BAND	-999	1	[0, 0, 0]	n/a	FR1	0	R1042M
220.4	3.167	142686	REC_WORD	6.18	n/a	FRUIT	-999	1	[0, 0, 0]	n/a	FR1	0	R1042M
223.567	1.509	144270	REC_WORD	9.347	n/a	ROSE	-999	1	[0, 0, 0]	n/a	FR1	0	R1042M
225.076	1.613	145024	REC_WORD	10.856	n/a	LAMP	-999	1	[0, 0, 0]	n/a	FR1	0	R1042M
226.689	9.811	145831	REC_WORD	12.469	n/a	STICK	-999	1	[0, 0, 0]	n/a	FR1	0	R1042M
236.5	0.735	150736	REC_WORD	22.28	n/a	CUP	-999	1	[0, 0, 0]	n/a	FR1	0	R1042M
237.235	6.996	151103	REC_WORD	23.015	n/a	JAR	-999	1	[0, 0, 0]	n/a	FR1	0	R1042M
244.231	21.081	154601	REC_END	n/a	n/a	n/a	-999	1	[0, 0, 0]	n/a	FR1	0	R1042M
265.312	0.0	165140	TRIAL	n/a	n/a	n/a	-999	2	[0, 0, 0]	n/a	FR1	0	R1042M
265.312	10.0	165140	COUNTDOWN_START	n/a	n/a	n/a	-999	2	[0, 0, 0]	n/a	FR1	0	R1042M
275.74	0.008	170354	COUNTDOWN_END	n/a	n/a	n/a	-999	2	[0, 0, 0]	n/a	FR1	0	R1042M
275.748	1.6	170358	ORIENT	n/a	n/a	n/a	-999	2	[0, 0, 0]	n/a	FR1	0	R1042M
278.331	1.6	171649	WORD	n/a	wordpools/wordpool_EN.txt	LOCK	1	2	[0, 0, 0]	n/a	FR1	0	R1042M
280.733	1.6	172850	WORD	n/a	wordpools/wordpool_EN.txt	FOG	2	2	[0, 0, 0]	n/a	FR1	0	R1042M
283.315	1.6	174141	WORD	n/a	wordpools/wordpool_EN.txt	BRIDGE	3	2	[0, 0, 0]	n/a	FR1	0	R1042M
285.75	1.6	175358	WORD	n/a	wordpools/wordpool_EN.txt	ARK	4	2	[0, 0, 0]	n/a	FR1	0	R1042M
288.366	1.6	176666	WORD	n/a	wordpools/wordpool_EN.txt	HEART	5	2	[0, 0, 0]	n/a	FR1	0	R1042M
290.801	1.6	177883	WORD	n/a	wordpools/wordpool_EN.txt	STAIR	6	2	[0, 0, 0]	n/a	FR1	0	R1042M
293.202	1.6	179084	WORD	n/a	wordpools/wordpool_EN.txt	RAIN	7	2	[0, 0, 0]	n/a	FR1	0	R1042M
295.585	1.6	180275	WORD	n/a	wordpools/wordpool_EN.txt	CLOUD	8	2	[0, 0, 0]	n/a	FR1	0	R1042M
298.119	1.6	181542	WORD	n/a	wordpools/wordpool_EN.txt	FOAM	9	2	[0, 0, 0]	n/a	FR1	0	R1042M
300.586	1.6	182775	WORD	n/a	wordpools/wordpool_EN.txt	SAIL	10	2	[0, 0, 0]	n/a	FR1	0	R1042M
303.12	1.6	184042	WORD	n/a	wordpools/wordpool_EN.txt	CAR	11	2	[0, 0, 0]	n/a	FR1	0	R1042M
305.737	1.6	185350	WORD	n/a	wordpools/wordpool_EN.txt	STORM	12	2	[0, 0, 0]	n/a	FR1	0	R1042M
307.353	0.001	186158	DISTRACT_START	n/a	n/a	n/a	-999	2	[0, 0, 0]	n/a	FR1	0	R1042M
307.354	0.016	186159	START	n/a	n/a	n/a	-999	2	[-999, -999, -999]	n/a	FR1	0	R1042M
307.37	3.685	186167	PROB	3.659	n/a	n/a	-999	2	[8, 9, 7]	24.0	FR1	0	R1042M
311.055	2.266	188009	PROB	2.238	n/a	n/a	-999	2	[5, 5, 7]	17.0	FR1	0	R1042M
313.321	1.735	189142	PROB	1.708	n/a	n/a	-999	2	[6, 1, 6]	13.0	FR1	0	R1042M
315.056	1.967	190009	PROB	1.941	n/a	n/a	-999	2	[4, 1, 8]	13.0	FR1	0	R1042M
317.023	3.051	190993	PROB	3.022	n/a	n/a	-999	2	[4, 9, 6]	18.0	FR1	0	R1042M
320.074	2.633	192518	PROB	2.603	n/a	n/a	-999	2	[2, 5, 9]	16.0	FR1	0	R1042M
322.707	7.362	193835	PROB	7.362	n/a	n/a	-999	2	[2, 9, 3]	14.0	FR1	0	R1042M
330.069	0.006	197515	STOP	n/a	n/a	n/a	-999	2	[-999, -999, -999]	n/a	FR1	0	R1042M
330.075	1.218	197518	DISTRACT_END	n/a	n/a	n/a	-999	2	[0, 0, 0]	n/a	FR1	0	R1042M
331.293	1.54	198127	REC_START	n/a	n/a	n/a	-999	2	[0, 0, 0]	n/a	FR1	0	R1042M
332.833	0.824	198897	REC_WORD	1.54	n/a	BRIDGE	-999	2	[0, 0, 0]	n/a	FR1	0	R1042M
333.657	1.212	199309	REC_WORD	2.364	n/a	FOG	-999	2	[0, 0, 0]	n/a	FR1	0	R1042M
334.869	1.611	199915	REC_WORD	3.576	n/a	STORM	-999	2	[0, 0, 0]	n/a	FR1	0	R1042M
336.48	7.029	200720	REC_WORD	5.187	n/a	CAR	-999	2	[0, 0, 0]	n/a	FR1	0	R1042M
343.509	17.794	204235	REC_WORD	12.216	n/a	STAIR	-999	2	[0, 0, 0]	n/a	FR1	0	R1042M
361.303	10.864	213131	REC_END	n/a	n/a	n/a	-999	2	[0, 0, 0]	n/a	FR1	0	R1042M
372.167	0.0	218562	TRIAL	n/a	n/a	n/a	-999	3	[0, 0, 0]	n/a	FR1	0	R1042M
372.167	10.0	218562	COUNTDOWN_START	n/a	n/a	n/a	-999	3	[0, 0, 0]	n/a	FR1	0	R1042M
382.595	0.007	223775	COUNTDOWN_END	n/a	n/a	n/a	-999	3	[0, 0, 0]	n/a	FR1	0	R1042M
382.602	1.6	223779	ORIENT	n/a	n/a	n/a	-999	3	[0, 0, 0]	n/a	FR1	0	R1042M
385.236	1.6	225096	WORD	n/a	wordpools/wordpool_EN.txt	TRASH	1	3	[0, 0, 0]	n/a	FR1	0	R1042M
387.77	1.6	226363	WORD	n/a	wordpools/wordpool_EN.txt	CAT	2	3	[0, 0, 0]	n/a	FR1	0	R1042M
390.154	1.6	227555	WORD	n/a	wordpools/wordpool_EN.txt	ZOO	3	3	[0, 0, 0]	n/a	FR1	0	R1042M
392.788	1.6	228871	WORD	n/a	wordpools/wordpool_EN.txt	FLUTE	4	3	[0, 0, 0]	n/a	FR1	0	R1042M
395.288	1.6	230121	WORD	n/a	wordpools/wordpool_EN.txt	STAR	5	3	[0, 0, 0]	n/a	FR1	0	R1042M
397.822	1.6	231388	WORD	n/a	wordpools/wordpool_EN.txt	MAZE	6	3	[0, 0, 0]	n/a	FR1	0	R1042M
400.272	1.6	232613	WORD	n/a	wordpools/wordpool_EN.txt	SUN	7	3	[0, 0, 0]	n/a	FR1	0	R1042M
402.673	1.6	233813	WORD	n/a	wordpools/wordpool_EN.txt	DESK	8	3	[0, 0, 0]	n/a	FR1	0	R1042M
405.073	1.6	235013	WORD	n/a	wordpools/wordpool_EN.txt	BAT	9	3	[0, 0, 0]	n/a	FR1	0	R1042M
407.674	1.6	236314	WORD	n/a	wordpools/wordpool_EN.txt	MOTH	10	3	[0, 0, 0]	n/a	FR1	0	R1042M
410.241	1.6	237597	WORD	n/a	wordpools/wordpool_EN.txt	BEE	11	3	[0, 0, 0]	n/a	FR1	0	R1042M
412.858	1.6	238905	WORD	n/a	wordpools/wordpool_EN.txt	BIRD	12	3	[0, 0, 0]	n/a	FR1	0	R1042M
414.474	0.001	239713	DISTRACT_START	n/a	n/a	n/a	-999	3	[0, 0, 0]	n/a	FR1	0	R1042M
414.475	0.017	239714	START	n/a	n/a	n/a	-999	3	[-999, -999, -999]	n/a	FR1	0	R1042M
414.492	3.45	239722	PROB	3.425	n/a	n/a	-999	3	[7, 9, 6]	22.0	FR1	0	R1042M
417.942	2.017	241447	PROB	1.991	n/a	n/a	-999	3	[7, 3, 5]	15.0	FR1	0	R1042M
419.959	1.717	242456	PROB	1.686	n/a	n/a	-999	3	[4, 4, 1]	9.0	FR1	0	R1042M
421.676	1.8	243314	PROB	1.768	n/a	n/a	-999	3	[1, 5, 2]	8.0	FR1	0	R1042M
423.476	2.301	244214	PROB	2.281	n/a	n/a	-999	3	[8, 7, 5]	20.0	FR1	0	R1042M
425.777	1.917	245364	PROB	1.892	n/a	n/a	-999	3	[3, 1, 1]	5.0	FR1	0	R1042M
427.694	3.733	246323	PROB	3.702	n/a	n/a	-999	3	[3, 3, 9]	15.0	FR1	0	R1042M
431.427	2.402	248189	PROB	2.377	n/a	n/a	-999	3	[3, 2, 3]	8.0	FR1	0	R1042M
433.829	2.24	249390	PROB	2.24	n/a	n/a	-999	3	[5, 2, 8]	15.0	FR1	0	R1042M
436.069	0.01	250510	STOP	n/a	n/a	n/a	-999	3	[-999, -999, -999]	n/a	FR1	0	R1042M
436.079	1.034	250515	DISTRACT_END	n/a	n/a	n/a	-999	3	[0, 0, 0]	n/a	FR1	0	R1042M
437.113	2.563	251032	REC_START	n/a	n/a	n/a	-999	3	[0, 0, 0]	n/a	FR1	0	R1042M
439.676	1.017	252313	REC_WORD	2.563	n/a	CAT	-999	3	[0, 0, 0]	n/a	FR1	0	R1042M
440.693	1.376	252821	REC_WORD	3.58	n/a	TRASH	-999	3	[0, 0, 0]	n/a	FR1	0	R1042M
442.069	1.673	253509	REC_WORD	4.956	n/a	BEE	-999	3	[0, 0, 0]	n/a	FR1	0	R1042M
443.742	13.223	254346	REC_WORD	6.629	n/a	ZOO	-999	3	[0, 0, 0]	n/a	FR1	0	R1042M
456.965	2.767	260957	REC_WORD	19.852	n/a	BAT	-999	3	[0, 0, 0]	n/a	FR1	0	R1042M
459.732	7.393	262340	REC_WORD	22.619	n/a	FLUTE	-999	3	[0, 0, 0]	n/a	FR1	0	R1042M
467.125	11.278	266036	REC_END	n/a	n/a	n/a	-999	3	[0, 0, 0]	n/a	FR1	0	R1042M
478.403	0.0	271675	TRIAL	n/a	n/a	n/a	-999	4	[0, 0, 0]	n/a	FR1	0	R1042M
478.403	10.0	271675	COUNTDOWN_START	n/a	n/a	n/a	-999	4	[0, 0, 0]	n/a	FR1	0	R1042M
488.831	0.008	276888	COUNTDOWN_END	n/a	n/a	n/a	-999	4	[0, 0, 0]	n/a	FR1	0	R1042M
488.839	1.6	276892	ORIENT	n/a	n/a	n/a	-999	4	[0, 0, 0]	n/a	FR1	0	R1042M
491.389	1.6	278167	WORD	n/a	wordpools/wordpool_EN.txt	STEAK	1	4	[0, 0, 0]	n/a	FR1	0	R1042M
493.857	1.6	279401	WORD	n/a	wordpools/wordpool_EN.txt	GOLD	2	4	[0, 0, 0]	n/a	FR1	0	R1042M
496.44	1.6	280692	WORD	n/a	wordpools/wordpool_EN.txt	PRINCE	3	4	[0, 0, 0]	n/a	FR1	0	R1042M
499.041	1.6	281992	WORD	n/a	wordpools/wordpool_EN.txt	BOAT	4	4	[0, 0, 0]	n/a	FR1	0	R1042M
501.592	1.6	283268	WORD	n/a	wordpools/wordpool_EN.txt	TRAIN	5	4	[0, 0, 0]	n/a	FR1	0	R1042M
504.059	1.6	284501	WORD	n/a	wordpools/wordpool_EN.txt	JET	6	4	[0, 0, 0]	n/a	FR1	0	R1042M
506.493	1.6	285718	WORD	n/a	wordpools/wordpool_EN.txt	PEARL	7	4	[0, 0, 0]	n/a	FR1	0	R1042M
508.977	1.6	286960	WORD	n/a	wordpools/wordpool_EN.txt	TOOTH	8	4	[0, 0, 0]	n/a	FR1	0	R1042M
511.476	1.6	288209	WORD	n/a	wordpools/wordpool_EN.txt	SHRIMP	9	4	[0, 0, 0]	n/a	FR1	0	R1042M
514.028	1.6	289485	WORD	n/a	wordpools/wordpool_EN.txt	CROWN	10	4	[0, 0, 0]	n/a	FR1	0	R1042M
516.528	1.6	290735	WORD	n/a	wordpools/wordpool_EN.txt	FISH	11	4	[0, 0, 0]	n/a	FR1	0	R1042M
519.112	1.6	292027	WORD	n/a	wordpools/wordpool_EN.txt	SLIME	12	4	[0, 0, 0]	n/a	FR1	0	R1042M
520.729	0.001	292835	DISTRACT_START	n/a	n/a	n/a	-999	4	[0, 0, 0]	n/a	FR1	0	R1042M
520.73	0.016	292836	START	n/a	n/a	n/a	-999	4	[-999, -999, -999]	n/a	FR1	0	R1042M
520.746	3.167	292844	PROB	3.147	n/a	n/a	-999	4	[2, 7, 6]	15.0	FR1	0	R1042M
523.913	2.217	294427	PROB	2.196	n/a	n/a	-999	4	[1, 5, 2]	8.0	FR1	0	R1042M
526.13	1.884	295536	PROB	1.859	n/a	n/a	-999	4	[3, 3, 1]	7.0	FR1	0	R1042M
528.014	2.432	296477	PROB	2.406	n/a	n/a	-999	4	[2, 5, 9]	16.0	FR1	0	R1042M
530.446	2.268	297693	PROB	2.247	n/a	n/a	-999	4	[9, 1, 7]	17.0	FR1	0	R1042M
532.714	2.401	298827	PROB	2.371	n/a	n/a	-999	4	[6, 4, 8]	18.0	FR1	0	R1042M
535.115	2.199	300028	PROB	2.17	n/a	n/a	-999	4	[8, 4, 3]	15.0	FR1	0	R1042M
537.314	2.202	301127	PROB	2.179	n/a	n/a	-999	4	[1, 2, 4]	7.0	FR1	0	R1042M
539.516	2.209	302228	PROB	2.209	n/a	n/a	-999	4	[8, 8, 1]	17.0	FR1	0	R1042M
541.725	0.008	303332	STOP	n/a	n/a	n/a	-999	4	[-999, -999, -999]	n/a	FR1	0	R1042M
541.733	1.201	303336	DISTRACT_END	n/a	n/a	n/a	-999	4	[0, 0, 0]	n/a	FR1	0	R1042M
542.934	1.094	303937	REC_START	n/a	n/a	n/a	-999	4	[0, 0, 0]	n/a	FR1	0	R1042M
544.028	1.081	304484	REC_WORD	1.094	n/a	PRINCE	-999	4	[0, 0, 0]	n/a	FR1	0	R1042M
545.109	1.425	305024	REC_WORD	2.175	n/a	GOLD	-999	4	[0, 0, 0]	n/a	FR1	0	R1042M
546.534	1.045	305737	REC_WORD	3.6	n/a	TOOTH	-999	4	[0, 0, 0]	n/a	FR1	0	R1042M
547.579	2.058	306259	REC_WORD	4.645	n/a	STEAK	-999	4	[0, 0, 0]	n/a	FR1	0	R1042M
549.637	1.527	307288	REC_WORD	6.703	n/a	SHRIMP	-999	4	[0, 0, 0]	n/a	FR1	0	R1042M
551.164	1.152	308051	REC_WORD	8.23	n/a	BOAT	-999	4	[0, 0, 0]	n/a	FR1	0	R1042M
552.316	1.841	308627	REC_WORD	9.382	n/a	JET	-999	4	[0, 0, 0]	n/a	FR1	0	R1042M
554.157	3.567	309548	REC_WORD	11.223	n/a	TRAIN	-999	4	[0, 0, 0]	n/a	FR1	0	R1042M
557.724	9.627	311331	REC_WORD	14.79	n/a	PEARL	-999	4	[0, 0, 0]	n/a	FR1	0	R1042M
567.351	5.593	316144	REC_WORD	24.417	n/a	CROWN	-999	4	[0, 0, 0]	n/a	FR1	0	R1042M
572.944	59.273	318940	REC_END	n/a	n/a	n/a	-999	4	[0, 0, 0]	n/a	FR1	0	R1042M
632.217	0.0	348574	TRIAL	n/a	n/a	n/a	-999	5	[0, 0, 0]	n/a	FR1	0	R1042M
632.217	10.0	348574	COUNTDOWN_START	n/a	n/a	n/a	-999	5	[0, 0, 0]	n/a	FR1	0	R1042M
642.645	0.007	353787	COUNTDOWN_END	n/a	n/a	n/a	-999	5	[0, 0, 0]	n/a	FR1	0	R1042M
642.652	1.6	353791	ORIENT	n/a	n/a	n/a	-999	5	[0, 0, 0]	n/a	FR1	0	R1042M
645.136	1.6	355032	WORD	n/a	wordpools/wordpool_EN.txt	TRAY	1	5	[0, 0, 0]	n/a	FR1	0	R1042M
647.637	1.6	356283	WORD	n/a	wordpools/wordpool_EN.txt	PET	2	5	[0, 0, 0]	n/a	FR1	0	R1042M
650.27	1.6	357599	WORD	n/a	wordpools/wordpool_EN.txt	CAKE	3	5	[0, 0, 0]	n/a	FR1	0	R1042M
652.904	1.6	358916	WORD	n/a	wordpools/wordpool_EN.txt	FUDGE	4	5	[0, 0, 0]	n/a	FR1	0	R1042M
655.288	1.6	360108	WORD	n/a	wordpools/wordpool_EN.txt	TEETH	5	5	[0, 0, 0]	n/a	FR1	0	R1042M
657.705	1.6	361316	WORD	n/a	wordpools/wordpool_EN.txt	GEESE	6	5	[0, 0, 0]	n/a	FR1	0	R1042M
660.139	1.6	362533	WORD	n/a	wordpools/wordpool_EN.txt	JUICE	7	5	[0, 0, 0]	n/a	FR1	0	R1042M
662.756	1.6	363842	WORD	n/a	wordpools/wordpool_EN.txt	MOUSE	8	5	[0, 0, 0]	n/a	FR1	0	R1042M
665.24	1.6	365083	WORD	n/a	wordpools/wordpool_EN.txt	EGG	9	5	[0, 0, 0]	n/a	FR1	0	R1042M
667.707	1.6	366317	WORD	n/a	wordpools/wordpool_EN.txt	FOOD	10	5	[0, 0, 0]	n/a	FR1	0	R1042M
670.308	1.6	367617	WORD	n/a	wordpools/wordpool_EN.txt	ANT	11	5	[0, 0, 0]	n/a	FR1	0	R1042M
672.892	1.6	368909	WORD	n/a	wordpools/wordpool_EN.txt	DUCK	12	5	[0, 0, 0]	n/a	FR1	0	R1042M
674.508	0.001	369717	DISTRACT_START	n/a	n/a	n/a	-999	5	[0, 0, 0]	n/a	FR1	0	R1042M
674.509	0.016	369717	START	n/a	n/a	n/a	-999	5	[-999, -999, -999]	n/a	FR1	0	R1042M
674.525	3.151	369725	PROB	3.12	n/a	n/a	-999	5	[4, 2, 8]	14.0	FR1	0	R1042M
677.676	2.367	371301	PROB	2.345	n/a	n/a	-999	5	[8, 9, 2]	19.0	FR1	0	R1042M
680.043	2.134	372484	PROB	2.114	n/a	n/a	-999	5	[9, 1, 5]	15.0	FR1	0	R1042M
682.177	2.282	373551	PROB	2.251	n/a	n/a	-999	5	[3, 7, 4]	14.0	FR1	0	R1042M
684.459	2.685	374692	PROB	2.65	n/a	n/a	-999	5	[4, 9, 3]	16.0	FR1	0	R1042M
687.144	2.634	376034	PROB	2.605	n/a	n/a	-999	5	[4, 1, 1]	6.0	FR1	0	R1042M
689.778	2.951	377351	PROB	2.915	n/a	n/a	-999	5	[3, 3, 1]	7.0	FR1	0	R1042M
692.729	2.363	378826	PROB	2.363	n/a	n/a	-999	5	[5, 1, 4]	10.0	FR1	0	R1042M
695.092	0.004	380008	STOP	n/a	n/a	n/a	-999	5	[-999, -999, -999]	n/a	FR1	0	R1042M
695.096	1.084	380010	DISTRACT_END	n/a	n/a	n/a	-999	5	[0, 0, 0]	n/a	FR1	0	R1042M
696.18	0.88	380552	REC_START	n/a	n/a	n/a	-999	5	[0, 0, 0]	n/a	FR1	0	R1042M
697.06	1.926	380992	REC_WORD	0.88	n/a	TRAY	-999	5	[0, 0, 0]	n/a	FR1	0	R1042M
698.986	1.446	381955	REC_WORD	2.806	n/a	FOOD	-999	5	[0, 0, 0]	n/a	FR1	0	R1042M
700.432	1.021	382678	REC_WORD	4.252	n/a	MOUSE	-999	5	[0, 0, 0]	n/a	FR1	0	R1042M
701.453	1.154	383188	REC_WORD	5.273	n/a	CAKE	-999	5	[0, 0, 0]	n/a	FR1	0	R1042M
702.607	1.824	383765	REC_WORD	6.427	n/a	FUDGE	-999	5	[0, 0, 0]	n/a	FR1	0	R1042M
704.431	2.533	384677	REC_WORD	8.251	n/a	TEETH	-999	5	[0, 0, 0]	n/a	FR1	0	R1042M
706.964	2.156	385943	REC_WORD	10.784	n/a	PET	-999	5	[0, 0, 0]	n/a	FR1	0	R1042M
709.12	17.07	387021	REC_WORD	12.94	n/a	GEESE	-999	5	[0, 0, 0]	n/a	FR1	0	R1042M
726.19	10.447	395555	REC_END	n/a	n/a	n/a	-999	5	[0, 0, 0]	n/a	FR1	0	R1042M
736.637	0.0	400778	TRIAL	n/a	n/a	n/a	-999	6	[0, 0, 0]	n/a	FR1	0	R1042M
736.637	10.0	400778	COUNTDOWN_START	n/a	n/a	n/a	-999	6	[0, 0, 0]	n/a	FR1	0	R1042M
747.065	0.008	405992	COUNTDOWN_END	n/a	n/a	n/a	-999	6	[0, 0, 0]	n/a	FR1	0	R1042M
747.073	1.6	405996	ORIENT	n/a	n/a	n/a	-999	6	[0, 0, 0]	n/a	FR1	0	R1042M
749.523	1.6	407221	WORD	n/a	wordpools/wordpool_EN.txt	FORT	1	6	[0, 0, 0]	n/a	FR1	0	R1042M
752.09	1.6	408504	WORD	n/a	wordpools/wordpool_EN.txt	MOON	2	6	[0, 0, 0]	n/a	FR1	0	R1042M
754.557	1.6	409737	WORD	n/a	wordpools/wordpool_EN.txt	FILM	3	6	[0, 0, 0]	n/a	FR1	0	R1042M
757.191	1.6	411054	WORD	n/a	wordpools/wordpool_EN.txt	INK	4	6	[0, 0, 0]	n/a	FR1	0	R1042M
759.725	1.6	412321	WORD	n/a	wordpools/wordpool_EN.txt	POLE	5	6	[0, 0, 0]	n/a	FR1	0	R1042M
762.158	1.6	413537	WORD	n/a	wordpools/wordpool_EN.txt	JUDGE	6	6	[0, 0, 0]	n/a	FR1	0	R1042M
764.576	1.6	414746	WORD	n/a	wordpools/wordpool_EN.txt	CASH	7	6	[0, 0, 0]	n/a	FR1	0	R1042M
767.076	1.6	415996	WORD	n/a	wordpools/wordpool_EN.txt	SHEET	8	6	[0, 0, 0]	n/a	FR1	0	R1042M
769.61	1.6	417263	WORD	n/a	wordpools/wordpool_EN.txt	MAIL	9	6	[0, 0, 0]	n/a	FR1	0	R1042M
772.111	1.6	418513	WORD	n/a	wordpools/wordpool_EN.txt	NET	10	6	[0, 0, 0]	n/a	FR1	0	R1042M
774.628	1.6	419772	WORD	n/a	wordpools/wordpool_EN.txt	TOAD	11	6	[0, 0, 0]	n/a	FR1	0	R1042M
777.095	1.6	421005	WORD	n/a	wordpools/wordpool_EN.txt	PEA	12	6	[0, 0, 0]	n/a	FR1	0	R1042M
778.712	0.001	421814	DISTRACT_START	n/a	n/a	n/a	-999	6	[0, 0, 0]	n/a	FR1	0	R1042M
778.713	0.016	421814	START	n/a	n/a	n/a	-999	6	[-999, -999, -999]	n/a	FR1	0	R1042M
778.729	2.732	421822	PROB	2.699	n/a	n/a	-999	6	[5, 5, 7]	17.0	FR1	0	R1042M
781.461	2.452	423188	PROB	2.424	n/a	n/a	-999	6	[2, 3, 4]	9.0	FR1	0	R1042M
783.913	2.734	424414	PROB	2.7	n/a	n/a	-999	6	[1, 3, 9]	13.0	FR1	0	R1042M
786.647	1.583	425781	PROB	1.55	n/a	n/a	-999	6	[5, 5, 1]	11.0	FR1	0	R1042M
788.23	2.051	426572	PROB	2.015	n/a	n/a	-999	6	[6, 2, 1]	9.0	FR1	0	R1042M
790.281	3.584	427597	PROB	3.556	n/a	n/a	-999	6	[4, 7, 5]	16.0	FR1	0	R1042M
793.865	2.384	429389	PROB	2.348	n/a	n/a	-999	6	[5, 4, 7]	16.0	FR1	0	R1042M
796.249	3.42	430581	PROB	3.42	n/a	n/a	-999	6	[5, 3, 6]	14.0	FR1	0	R1042M
799.669	0.014	432291	STOP	n/a	n/a	n/a	-999	6	[-999, -999, -999]	n/a	FR1	0	R1042M
799.683	1.167	432298	DISTRACT_END	n/a	n/a	n/a	-999	6	[0, 0, 0]	n/a	FR1	0	R1042M
800.85	1.312	432881	REC_START	n/a	n/a	n/a	-999	6	[0, 0, 0]	n/a	FR1	0	R1042M
802.162	1.161	433537	REC_WORD	1.312	n/a	FORT	-999	6	[0, 0, 0]	n/a	FR1	0	R1042M
803.323	1.528	434118	REC_WORD	2.473	n/a	POLE	-999	6	[0, 0, 0]	n/a	FR1	0	R1042M
804.851	1.18	434882	REC_WORD	4.001	n/a	MAIL	-999	6	[0, 0, 0]	n/a	FR1	0	R1042M
806.031	1.23	435472	REC_WORD	5.181	n/a	SHEET	-999	6	[0, 0, 0]	n/a	FR1	0	R1042M
807.261	1.211	436087	REC_WORD	6.411	n/a	NET	-999	6	[0, 0, 0]	n/a	FR1	0	R1042M
808.472	1.537	436692	REC_WORD	7.622	n/a	JUDGE	-999	6	[0, 0, 0]	n/a	FR1	0	R1042M
810.009	20.852	437460	REC_WORD	9.159	n/a	MOON	-999	6	[0, 0, 0]	n/a	FR1	0	R1042M
830.861	55.038	447885	REC_END	n/a	n/a	n/a	-999	6	[0, 0, 0]	n/a	FR1	0	R1042M
885.899	10.0	475401	COUNTDOWN_START	n/a	n/a	n/a	-999	7	[0, 0, 0]	n/a	FR1	0	R1042M
885.9	10.427	475402	TRIAL	n/a	n/a	n/a	-999	7	[0, 0, 0]	n/a	FR1	0	R1042M
896.327	0.007	480615	COUNTDOWN_END	n/a	n/a	n/a	-999	7	[0, 0, 0]	n/a	FR1	0	R1042M
896.334	1.6	480618	ORIENT	n/a	n/a	n/a	-999	7	[0, 0, 0]	n/a	FR1	0	R1042M
898.919	1.6	481911	WORD	n/a	wordpools/wordpool_EN.txt	BOARD	1	7	[0, 0, 0]	n/a	FR1	0	R1042M
901.351	1.6	483127	WORD	n/a	wordpools/wordpool_EN.txt	ARM	2	7	[0, 0, 0]	n/a	FR1	0	R1042M
903.869	1.6	484386	WORD	n/a	wordpools/wordpool_EN.txt	HOOK	3	7	[0, 0, 0]	n/a	FR1	0	R1042M
906.419	1.6	485660	WORD	n/a	wordpools/wordpool_EN.txt	VEST	4	7	[0, 0, 0]	n/a	FR1	0	R1042M
908.87	1.6	486886	WORD	n/a	wordpools/wordpool_EN.txt	SOCK	5	7	[0, 0, 0]	n/a	FR1	0	R1042M
911.337	1.6	488119	WORD	n/a	wordpools/wordpool_EN.txt	TOAST	6	7	[0, 0, 0]	n/a	FR1	0	R1042M
913.838	1.6	489370	WORD	n/a	wordpools/wordpool_EN.txt	MAT	7	7	[0, 0, 0]	n/a	FR1	0	R1042M
916.437	1.6	490669	WORD	n/a	wordpools/wordpool_EN.txt	NAIL	8	7	[0, 0, 0]	n/a	FR1	0	R1042M
919.039	1.6	491970	WORD	n/a	wordpools/wordpool_EN.txt	STOVE	9	7	[0, 0, 0]	n/a	FR1	0	R1042M
921.623	1.6	493262	WORD	n/a	wordpools/wordpool_EN.txt	ROOM	10	7	[0, 0, 0]	n/a	FR1	0	R1042M
924.107	1.6	494504	WORD	n/a	wordpools/wordpool_EN.txt	HOOF	11	7	[0, 0, 0]	n/a	FR1	0	R1042M
926.624	1.6	495762	WORD	n/a	wordpools/wordpool_EN.txt	BRUSH	12	7	[0, 0, 0]	n/a	FR1	0	R1042M
928.241	0.001	496570	DISTRACT_START	n/a	n/a	n/a	-999	7	[0, 0, 0]	n/a	FR1	0	R1042M
928.242	0.015	496571	START	n/a	n/a	n/a	-999	7	[-999, -999, -999]	n/a	FR1	0	R1042M
928.257	4.167	496578	PROB	4.147	n/a	n/a	-999	7	[5, 7, 7]	19.0	FR1	0	R1042M
932.424	1.984	498662	PROB	1.956	n/a	n/a	-999	7	[1, 2, 9]	12.0	FR1	0	R1042M
934.408	2.401	499653	PROB	2.373	n/a	n/a	-999	7	[1, 5, 9]	15.0	FR1	0	R1042M
936.809	2.351	500854	PROB	2.324	n/a	n/a	-999	7	[7, 4, 2]	13.0	FR1	0	R1042M
939.16	3.084	502029	PROB	3.053	n/a	n/a	-999	7	[7, 8, 9]	24.0	FR1	0	R1042M
942.244	2.149	503571	PROB	2.128	n/a	n/a	-999	7	[4, 8, 7]	19.0	FR1	0	R1042M
944.393	2.385	504645	PROB	2.364	n/a	n/a	-999	7	[5, 3, 2]	10.0	FR1	0	R1042M
946.778	1.803	505838	PROB	1.803	n/a	n/a	-999	7	[5, 4, 1]	10.0	FR1	0	R1042M
948.581	0.014	506739	STOP	n/a	n/a	n/a	-999	7	[-999, -999, -999]	n/a	FR1	0	R1042M
948.595	1.051	506746	DISTRACT_END	n/a	n/a	n/a	-999	7	[0, 0, 0]	n/a	FR1	0	R1042M
949.646	1.015	507272	REC_START	n/a	n/a	n/a	-999	7	[0, 0, 0]	n/a	FR1	0	R1042M
950.661	0.783	507779	REC_WORD	1.015	n/a	BRUSH	-999	7	[0, 0, 0]	n/a	FR1	0	R1042M
951.444	1.025	508171	REC_WORD	1.798	n/a	VEST	-999	7	[0, 0, 0]	n/a	FR1	0	R1042M
952.469	0.799	508683	REC_WORD	2.823	n/a	HOOK	-999	7	[0, 0, 0]	n/a	FR1	0	R1042M
953.268	1.206	509082	REC_WORD	3.622	n/a	ARM	-999	7	[0, 0, 0]	n/a	FR1	0	R1042M
954.474	6.129	509685	REC_WORD	4.828	n/a	BOARD	-999	7	[0, 0, 0]	n/a	FR1	0	R1042M
960.603	2.144	512750	REC_WORD	10.957	n/a	TOAST	-999	7	[0, 0, 0]	n/a	FR1	0	R1042M
962.747	16.909	513822	REC_WORD	13.101	n/a	STOVE	-999	7	[0, 0, 0]	n/a	FR1	0	R1042M
979.656	14.214	522275	REC_END	n/a	n/a	n/a	-999	7	[0, 0, 0]	n/a	FR1	0	R1042M
993.87	0.0	529381	TRIAL	n/a	n/a	n/a	-999	8	[0, 0, 0]	n/a	FR1	0	R1042M
993.87	10.0	529381	COUNTDOWN_START	n/a	n/a	n/a	-999	8	[0, 0, 0]	n/a	FR1	0	R1042M
1004.298	0.008	534595	COUNTDOWN_END	n/a	n/a	n/a	-999	8	[0, 0, 0]	n/a	FR1	0	R1042M
1004.306	1.6	534599	ORIENT	n/a	n/a	n/a	-999	8	[0, 0, 0]	n/a	FR1	0	R1042M
1006.839	1.6	535865	WORD	n/a	wordpools/wordpool_EN.txt	SIGN	1	8	[0, 0, 0]	n/a	FR1	0	R1042M
1009.339	1.6	537115	WORD	n/a	wordpools/wordpool_EN.txt	SKI	2	8	[0, 0, 0]	n/a	FR1	0	R1042M
1011.907	1.6	538399	WORD	n/a	wordpools/wordpool_EN.txt	FLEA	3	8	[0, 0, 0]	n/a	FR1	0	R1042M
1014.323	1.6	539607	WORD	n/a	wordpools/wordpool_EN.txt	PIN	4	8	[0, 0, 0]	n/a	FR1	0	R1042M
1016.908	1.6	540899	WORD	n/a	wordpools/wordpool_EN.txt	ROPE	5	8	[0, 0, 0]	n/a	FR1	0	R1042M
1019.324	1.6	542107	WORD	n/a	wordpools/wordpool_EN.txt	SHOE	6	8	[0, 0, 0]	n/a	FR1	0	R1042M
1021.926	1.6	543408	WORD	n/a	wordpools/wordpool_EN.txt	RIB	7	8	[0, 0, 0]	n/a	FR1	0	R1042M
1024.358	1.6	544624	WORD	n/a	wordpools/wordpool_EN.txt	MUD	8	8	[0, 0, 0]	n/a	FR1	0	R1042M
1026.793	1.6	545841	WORD	n/a	wordpools/wordpool_EN.txt	BATH	9	8	[0, 0, 0]	n/a	FR1	0	R1042M
1029.326	1.6	547108	WORD	n/a	wordpools/wordpool_EN.txt	FOOT	10	8	[0, 0, 0]	n/a	FR1	0	R1042M
1031.928	1.6	548408	WORD	n/a	wordpools/wordpool_EN.txt	HAWK	11	8	[0, 0, 0]	n/a	FR1	0	R1042M
1034.528	1.6	549708	WORD	n/a	wordpools/wordpool_EN.txt	CHIN	12	8	[0, 0, 0]	n/a	FR1	0	R1042M
1036.145	0.001	550517	DISTRACT_START	n/a	n/a	n/a	-999	8	[0, 0, 0]	n/a	FR1	0	R1042M
1036.146	0.016	550517	START	n/a	n/a	n/a	-999	8	[-999, -999, -999]	n/a	FR1	0	R1042M
1036.162	3.166	550525	PROB	3.131	n/a	n/a	-999	8	[5, 6, 3]	14.0	FR1	0	R1042M
1039.328	3.402	552108	PROB	3.381	n/a	n/a	-999	8	[4, 1, 4]	9.0	FR1	0	R1042M
1042.73	2.483	553809	PROB	2.459	n/a	n/a	-999	8	[2, 5, 9]	16.0	FR1	0	R1042M
1045.213	2.351	555050	PROB	2.328	n/a	n/a	-999	8	[7, 7, 2]	16.0	FR1	0	R1042M
1047.564	1.899	556226	PROB	1.864	n/a	n/a	-999	8	[9, 1, 2]	12.0	FR1	0	R1042M
1049.463	4.069	557175	PROB	4.046	n/a	n/a	-999	8	[6, 5, 8]	19.0	FR1	0	R1042M
1053.532	2.769	559209	PROB	2.769	n/a	n/a	-999	8	[3, 4, 3]	10.0	FR1	0	R1042M
1056.301	0.014	560594	STOP	n/a	n/a	n/a	-999	8	[-999, -999, -999]	n/a	FR1	0	R1042M
1056.315	1.05	560601	DISTRACT_END	n/a	n/a	n/a	-999	8	[0, 0, 0]	n/a	FR1	0	R1042M
1057.365	1.424	561126	REC_START	n/a	n/a	n/a	-999	8	[0, 0, 0]	n/a	FR1	0	R1042M
1058.789	2.095	561838	REC_WORD	1.424	n/a	CHIN	-999	8	[0, 0, 0]	n/a	FR1	0	R1042M
1060.884	1.328	562885	REC_WORD	3.519	n/a	MUD	-999	8	[0, 0, 0]	n/a	FR1	0	R1042M
1062.212	25.167	563549	REC_WORD	4.847	n/a	SHOE	-999	8	[0, 0, 0]	n/a	FR1	0	R1042M
1087.379	71.256	576131	REC_END	n/a	n/a	n/a	-999	8	[0, 0, 0]	n/a	FR1	0	R1042M
1158.635	10.0	611755	COUNTDOWN_START	n/a	n/a	n/a	-999	9	[0, 0, 0]	n/a	FR1	0	R1042M
1158.636	10.427	611756	TRIAL	n/a	n/a	n/a	-999	9	[0, 0, 0]	n/a	FR1	0	R1042M
1169.063	0.008	616969	COUNTDOWN_END	n/a	n/a	n/a	-999	9	[0, 0, 0]	n/a	FR1	0	R1042M
1169.071	1.6	616973	ORIENT	n/a	n/a	n/a	-999	9	[0, 0, 0]	n/a	FR1	0	R1042M
1171.604	1.6	618239	WORD	n/a	wordpools/wordpool_EN.txt	BROOM	1	9	[0, 0, 0]	n/a	FR1	0	R1042M
1173.988	1.6	619431	WORD	n/a	wordpools/wordpool_EN.txt	DRESS	2	9	[0, 0, 0]	n/a	FR1	0	R1042M
1176.605	1.6	620739	WORD	n/a	wordpools/wordpool_EN.txt	OAK	3	9	[0, 0, 0]	n/a	FR1	0	R1042M
1179.223	1.6	622048	WORD	n/a	wordpools/wordpool_EN.txt	ROOF	4	9	[0, 0, 0]	n/a	FR1	0	R1042M
1181.673	1.6	623273	WORD	n/a	wordpools/wordpool_EN.txt	HORSE	5	9	[0, 0, 0]	n/a	FR1	0	R1042M
1184.24	1.6	624557	WORD	n/a	wordpools/wordpool_EN.txt	RAKE	6	9	[0, 0, 0]	n/a	FR1	0	R1042M
1186.691	1.6	625782	WORD	n/a	wordpools/wordpool_EN.txt	WHALE	7	9	[0, 0, 0]	n/a	FR1	0	R1042M
1189.141	1.6	627007	WORD	n/a	wordpools/wordpool_EN.txt	DRUM	8	9	[0, 0, 0]	n/a	FR1	0	R1042M
1191.558	1.6	628215	WORD	n/a	wordpools/wordpool_EN.txt	BAG	9	9	[0, 0, 0]	n/a	FR1	0	R1042M
1194.076	1.6	629474	WORD	n/a	wordpools/wordpool_EN.txt	FLAG	10	9	[0, 0, 0]	n/a	FR1	0	R1042M
1196.576	1.6	630724	WORD	n/a	wordpools/wordpool_EN.txt	CLOWN	11	9	[0, 0, 0]	n/a	FR1	0	R1042M
1198.96	1.6	631916	WORD	n/a	wordpools/wordpool_EN.txt	PARK	12	9	[0, 0, 0]	n/a	FR1	0	R1042M
1200.577	0.001	632724	DISTRACT_START	n/a	n/a	n/a	-999	9	[0, 0, 0]	n/a	FR1	0	R1042M
1200.578	0.015	632725	START	n/a	n/a	n/a	-999	9	[-999, -999, -999]	n/a	FR1	0	R1042M
1200.593	2.901	632732	PROB	2.867	n/a	n/a	-999	9	[4, 6, 3]	13.0	FR1	0	R1042M
1203.494	3.584	634183	PROB	3.559	n/a	n/a	-999	9	[7, 4, 9]	20.0	FR1	0	R1042M
1207.078	2.634	635974	PROB	2.607	n/a	n/a	-999	9	[5, 1, 9]	15.0	FR1	0	R1042M
1209.712	2.334	637291	PROB	2.301	n/a	n/a	-999	9	[2, 9, 6]	17.0	FR1	0	R1042M
1212.046	2.517	638458	PROB	2.487	n/a	n/a	-999	9	[2, 6, 6]	14.0	FR1	0	R1042M
1214.563	2.717	639716	PROB	2.69	n/a	n/a	-999	9	[4, 9, 4]	17.0	FR1	0	R1042M
1217.28	2.634	641075	PROB	2.605	n/a	n/a	-999	9	[3, 2, 2]	7.0	FR1	0	R1042M
1219.914	2.402	642392	PROB	2.402	n/a	n/a	-999	9	[9, 2, 7]	18.0	FR1	0	R1042M
1222.316	0.014	643593	STOP	n/a	n/a	n/a	-999	9	[-999, -999, -999]	n/a	FR1	0	R1042M
1222.33	1.219	643600	DISTRACT_END	n/a	n/a	n/a	-999	9	[0, 0, 0]	n/a	FR1	0	R1042M
1223.549	1.146	644209	REC_START	n/a	n/a	n/a	-999	9	[0, 0, 0]	n/a	FR1	0	R1042M
1224.695	28.864	644782	REC_WORD	1.146	n/a	BAG	-999	9	[0, 0, 0]	n/a	FR1	0	R1042M
1253.559	328.591	659212	REC_END	n/a	n/a	n/a	-999	9	[0, 0, 0]	n/a	FR1	0	R1042M
1582.15	10.0	823491	COUNTDOWN_START	n/a	n/a	n/a	-999	10	[0, 0, 0]	n/a	FR1	0	R1042M
1582.151	10.427	823491	TRIAL	n/a	n/a	n/a	-999	10	[0, 0, 0]	n/a	FR1	0	R1042M
1592.578	0.008	828704	COUNTDOWN_END	n/a	n/a	n/a	-999	10	[0, 0, 0]	n/a	FR1	0	R1042M
1592.586	1.6	828708	ORIENT	n/a	n/a	n/a	-999	10	[0, 0, 0]	n/a	FR1	0	R1042M
1594.986	1.6	829908	WORD	n/a	wordpools/wordpool_EN.txt	BRICK	1	10	[0, 0, 0]	n/a	FR1	0	R1042M
1597.402	1.6	831116	WORD	n/a	wordpools/wordpool_EN.txt	WEB	2	10	[0, 0, 0]	n/a	FR1	0	R1042M
1599.904	1.6	832367	WORD	n/a	wordpools/wordpool_EN.txt	TANK	3	10	[0, 0, 0]	n/a	FR1	0	R1042M
1602.504	1.6	833667	WORD	n/a	wordpools/wordpool_EN.txt	SCHOOL	4	10	[0, 0, 0]	n/a	FR1	0	R1042M
1604.888	1.6	834859	WORD	n/a	wordpools/wordpool_EN.txt	MAP	5	10	[0, 0, 0]	n/a	FR1	0	R1042M
1607.438	1.6	836134	WORD	n/a	wordpools/wordpool_EN.txt	KEY	6	10	[0, 0, 0]	n/a	FR1	0	R1042M
1609.989	1.6	837409	WORD	n/a	wordpools/wordpool_EN.txt	BALL	7	10	[0, 0, 0]	n/a	FR1	0	R1042M
1612.439	1.6	838634	WORD	n/a	wordpools/wordpool_EN.txt	SHARK	8	10	[0, 0, 0]	n/a	FR1	0	R1042M
1614.957	1.6	839893	WORD	n/a	wordpools/wordpool_EN.txt	COIN	9	10	[0, 0, 0]	n/a	FR1	0	R1042M
1617.507	1.6	841168	WORD	n/a	wordpools/wordpool_EN.txt	FLOOR	10	10	[0, 0, 0]	n/a	FR1	0	R1042M
1620.058	1.6	842443	WORD	n/a	wordpools/wordpool_EN.txt	TOE	11	10	[0, 0, 0]	n/a	FR1	0	R1042M
1622.542	1.6	843685	WORD	n/a	wordpools/wordpool_EN.txt	FAN	12	10	[0, 0, 0]	n/a	FR1	0	R1042M
1624.159	0.0	844493	DISTRACT_START	n/a	n/a	n/a	-999	10	[0, 0, 0]	n/a	FR1	0	R1042M
1624.159	0.016	844493	START	n/a	n/a	n/a	-999	10	[-999, -999, -999]	n/a	FR1	0	R1042M
1624.175	2.751	844501	PROB	2.718	n/a	n/a	-999	10	[7, 4, 7]	18.0	FR1	0	R1042M
1626.926	2.383	845877	PROB	2.359	n/a	n/a	-999	10	[3, 6, 2]	11.0	FR1	0	R1042M
1629.309	1.484	847068	PROB	1.464	n/a	n/a	-999	10	[8, 3, 1]	12.0	FR1	0	R1042M
1630.793	2.134	847810	PROB	2.108	n/a	n/a	-999	10	[6, 4, 6]	14.0	FR1	0	R1042M
1632.927	3.433	848877	PROB	3.397	n/a	n/a	-999	10	[9, 3, 8]	20.0	FR1	0	R1042M
1636.36	3.468	850593	PROB	3.445	n/a	n/a	-999	10	[6, 7, 7]	20.0	FR1	0	R1042M
1639.828	2.533	852327	PROB	2.512	n/a	n/a	-999	10	[6, 8, 3]	17.0	FR1	0	R1042M
1642.361	1.955	853593	PROB	1.955	n/a	n/a	-999	10	[3, 4, 6]	13.0	FR1	0	R1042M
1644.316	0.012	854571	STOP	n/a	n/a	n/a	-999	10	[-999, -999, -999]	n/a	FR1	0	R1042M
1644.328	1.034	854577	DISTRACT_END	n/a	n/a	n/a	-999	10	[0, 0, 0]	n/a	FR1	0	R1042M
1645.362	1.435	855094	REC_START	n/a	n/a	n/a	-999	10	[0, 0, 0]	n/a	FR1	0	R1042M
1646.797	1.056	855811	REC_WORD	1.435	n/a	BRICK	-999	10	[0, 0, 0]	n/a	FR1	0	R1042M
1647.853	1.416	856339	REC_WORD	2.491	n/a	WEB	-999	10	[0, 0, 0]	n/a	FR1	0	R1042M
1649.269	1.938	857047	REC_WORD	3.907	n/a	SCHOOL	-999	10	[0, 0, 0]	n/a	FR1	0	R1042M
1651.207	1.504	858016	REC_WORD	5.845	n/a	KEY	-999	10	[0, 0, 0]	n/a	FR1	0	R1042M
1652.711	3.462	858768	REC_WORD	7.349	n/a	MAP	-999	10	[0, 0, 0]	n/a	FR1	0	R1042M
1656.173	19.203	860499	REC_WORD	10.811	n/a	SHARK	-999	10	[0, 0, 0]	n/a	FR1	0	R1042M
1675.376	32.165	870099	REC_END	n/a	n/a	n/a	-999	10	[0, 0, 0]	n/a	FR1	0	R1042M
1707.541	10.0	886180	COUNTDOWN_START	n/a	n/a	n/a	-999	11	[0, 0, 0]	n/a	FR1	0	R1042M
1707.542	10.427	886181	TRIAL	n/a	n/a	n/a	-999	11	[0, 0, 0]	n/a	FR1	0	R1042M
1717.969	0.008	891393	COUNTDOWN_END	n/a	n/a	n/a	-999	11	[0, 0, 0]	n/a	FR1	0	R1042M
1717.977	1.6	891397	ORIENT	n/a	n/a	n/a	-999	11	[0, 0, 0]	n/a	FR1	0	R1042M
1720.61	1.6	892714	WORD	n/a	wordpools/wordpool_EN.txt	TRUCK	1	11	[0, 0, 0]	n/a	FR1	0	R1042M
1723.194	1.6	894006	WORD	n/a	wordpools/wordpool_EN.txt	TIE	2	11	[0, 0, 0]	n/a	FR1	0	R1042M
1725.661	1.6	895239	WORD	n/a	wordpools/wordpool_EN.txt	WEED	3	11	[0, 0, 0]	n/a	FR1	0	R1042M
1728.112	1.6	896464	WORD	n/a	wordpools/wordpool_EN.txt	HOUSE	4	11	[0, 0, 0]	n/a	FR1	0	R1042M
1730.612	1.6	897714	WORD	n/a	wordpools/wordpool_EN.txt	CHEEK	5	11	[0, 0, 0]	n/a	FR1	0	R1042M
1733.13	1.6	898973	WORD	n/a	wordpools/wordpool_EN.txt	CLOCK	6	11	[0, 0, 0]	n/a	FR1	0	R1042M
1735.58	1.6	900198	WORD	n/a	wordpools/wordpool_EN.txt	DOCK	7	11	[0, 0, 0]	n/a	FR1	0	R1042M
1738.097	1.6	901456	WORD	n/a	wordpools/wordpool_EN.txt	BENCH	8	11	[0, 0, 0]	n/a	FR1	0	R1042M
1740.664	1.6	902740	WORD	n/a	wordpools/wordpool_EN.txt	LAWN	9	11	[0, 0, 0]	n/a	FR1	0	R1042M
1743.265	1.6	904040	WORD	n/a	wordpools/wordpool_EN.txt	BOX	10	11	[0, 0, 0]	n/a	FR1	0	R1042M
1745.649	1.6	905232	WORD	n/a	wordpools/wordpool_EN.txt	ROAD	11	11	[0, 0, 0]	n/a	FR1	0	R1042M
1748.116	1.6	906465	WORD	n/a	wordpools/wordpool_EN.txt	PANTS	12	11	[0, 0, 0]	n/a	FR1	0	R1042M
1749.733	0.001	907274	DISTRACT_START	n/a	n/a	n/a	-999	11	[0, 0, 0]	n/a	FR1	0	R1042M
1749.734	0.015	907274	START	n/a	n/a	n/a	-999	11	[-999, -999, -999]	n/a	FR1	0	R1042M
1749.749	2.801	907282	PROB	2.768	n/a	n/a	-999	11	[7, 6, 9]	22.0	FR1	0	R1042M
1752.55	1.799	908682	PROB	1.766	n/a	n/a	-999	11	[4, 7, 2]	13.0	FR1	0	R1042M
1754.349	2.835	909582	PROB	2.8	n/a	n/a	-999	11	[1, 9, 3]	13.0	FR1	0	R1042M
1757.184	1.967	910999	PROB	1.933	n/a	n/a	-999	11	[9, 3, 9]	21.0	FR1	0	R1042M
1759.151	1.801	911982	PROB	1.774	n/a	n/a	-999	11	[7, 5, 3]	15.0	FR1	0	R1042M
1760.952	1.666	912883	PROB	1.645	n/a	n/a	-999	11	[2, 2, 2]	6.0	FR1	0	R1042M
1762.618	2.668	913716	PROB	2.643	n/a	n/a	-999	11	[9, 3, 8]	20.0	FR1	0	R1042M
1765.286	2.217	915050	PROB	2.19	n/a	n/a	-999	11	[1, 6, 6]	13.0	FR1	0	R1042M
1767.503	2.286	916158	PROB	2.286	n/a	n/a	-999	11	[3, 3, 2]	8.0	FR1	0	R1042M
1769.789	0.014	917301	STOP	n/a	n/a	n/a	-999	11	[-999, -999, -999]	n/a	FR1	0	R1042M
1769.803	1.051	917308	DISTRACT_END	n/a	n/a	n/a	-999	11	[0, 0, 0]	n/a	FR1	0	R1042M
1770.854	0.789	917833	REC_START	n/a	n/a	n/a	-999	11	[0, 0, 0]	n/a	FR1	0	R1042M
1771.643	0.955	918228	REC_WORD	0.789	n/a	TRUCK	-999	11	[0, 0, 0]	n/a	FR1	0	R1042M
1772.598	0.975	918705	REC_WORD	1.744	n/a	TIE	-999	11	[0, 0, 0]	n/a	FR1	0	R1042M
1773.573	1.643	919193	REC_WORD	2.719	n/a	WEED	-999	11	[0, 0, 0]	n/a	FR1	0	R1042M
1775.216	1.655	920014	REC_WORD	4.362	n/a	CHEEK	-999	11	[0, 0, 0]	n/a	FR1	0	R1042M
1776.871	4.758	920841	REC_WORD	6.017	n/a	BOX	-999	11	[0, 0, 0]	n/a	FR1	0	R1042M
1781.629	17.814	923220	REC_WORD	10.775	n/a	HOUSE	-999	11	[0, 0, 0]	n/a	FR1	0	R1042M
1799.443	1.421	932126	REC_WORD	28.589	n/a	PANTS	-999	11	[0, 0, 0]	n/a	FR1	0	R1042M
1800.864	22.449	932837	REC_END	n/a	n/a	n/a	-999	11	[0, 0, 0]	n/a	FR1	0	R1042M
1823.313	10.0	944060	COUNTDOWN_START	n/a	n/a	n/a	-999	12	[0, 0, 0]	n/a	FR1	0	R1042M
1823.313	10.428	944060	TRIAL	n/a	n/a	n/a	-999	12	[0, 0, 0]	n/a	FR1	0	R1042M
1833.741	0.008	949273	COUNTDOWN_END	n/a	n/a	n/a	-999	12	[0, 0, 0]	n/a	FR1	0	R1042M
1833.749	1.6	949277	ORIENT	n/a	n/a	n/a	-999	12	[0, 0, 0]	n/a	FR1	0	R1042M
1836.283	1.6	950544	WORD	n/a	wordpools/wordpool_EN.txt	FUR	1	12	[0, 0, 0]	n/a	FR1	0	R1042M
1838.667	1.6	951736	WORD	n/a	wordpools/wordpool_EN.txt	BANK	2	12	[0, 0, 0]	n/a	FR1	0	R1042M
1841.101	1.6	952953	WORD	n/a	wordpools/wordpool_EN.txt	COUCH	3	12	[0, 0, 0]	n/a	FR1	0	R1042M
1843.551	1.6	954178	WORD	n/a	wordpools/wordpool_EN.txt	CROW	4	12	[0, 0, 0]	n/a	FR1	0	R1042M
1846.001	1.6	955403	WORD	n/a	wordpools/wordpool_EN.txt	CART	5	12	[0, 0, 0]	n/a	FR1	0	R1042M
1848.502	1.6	956653	WORD	n/a	wordpools/wordpool_EN.txt	SNAKE	6	12	[0, 0, 0]	n/a	FR1	0	R1042M
1850.885	1.6	957845	WORD	n/a	wordpools/wordpool_EN.txt	SKUNK	7	12	[0, 0, 0]	n/a	FR1	0	R1042M
1853.402	1.6	959103	WORD	n/a	wordpools/wordpool_EN.txt	WAND	8	12	[0, 0, 0]	n/a	FR1	0	R1042M
1855.887	1.6	960345	WORD	n/a	wordpools/wordpool_EN.txt	SHIRT	9	12	[0, 0, 0]	n/a	FR1	0	R1042M
1858.319	1.6	961561	WORD	n/a	wordpools/wordpool_EN.txt	RAT	10	12	[0, 0, 0]	n/a	FR1	0	R1042M
1860.804	1.6	962804	WORD	n/a	wordpools/wordpool_EN.txt	DOLL	11	12	[0, 0, 0]	n/a	FR1	0	R1042M
1863.221	1.6	964012	WORD	n/a	wordpools/wordpool_EN.txt	BED	12	12	[0, 0, 0]	n/a	FR1	0	R1042M
1864.822	0.001	964812	DISTRACT_START	n/a	n/a	n/a	-999	12	[0, 0, 0]	n/a	FR1	0	R1042M
1864.823	0.015	964813	START	n/a	n/a	n/a	-999	12	[-999, -999, -999]	n/a	FR1	0	R1042M
1864.838	2.633	964820	PROB	2.598	n/a	n/a	-999	12	[2, 2, 6]	10.0	FR1	0	R1042M
1867.471	1.901	966137	PROB	1.877	n/a	n/a	-999	12	[4, 4, 4]	12.0	FR1	0	R1042M
1869.372	2.901	967087	PROB	2.865	n/a	n/a	-999	12	[1, 6, 9]	16.0	FR1	0	R1042M
1872.273	2.851	968537	PROB	2.828	n/a	n/a	-999	12	[9, 1, 5]	15.0	FR1	0	R1042M
1875.124	2.8	969963	PROB	2.777	n/a	n/a	-999	12	[6, 6, 9]	21.0	FR1	0	R1042M
1877.924	3.801	971363	PROB	3.761	n/a	n/a	-999	12	[8, 8, 1]	17.0	FR1	0	R1042M
1881.725	2.284	973263	PROB	2.248	n/a	n/a	-999	12	[5, 6, 1]	12.0	FR1	0	R1042M
1884.009	2.116	974405	PROB	2.116	n/a	n/a	-999	12	[1, 5, 1]	7.0	FR1	0	R1042M
1886.125	0.017	975463	STOP	n/a	n/a	n/a	-999	12	[-999, -999, -999]	n/a	FR1	0	R1042M
1886.142	1.2	975471	DISTRACT_END	n/a	n/a	n/a	-999	12	[0, 0, 0]	n/a	FR1	0	R1042M
1887.342	0.418	976071	REC_START	n/a	n/a	n/a	-999	12	[0, 0, 0]	n/a	FR1	0	R1042M
1887.76	0.814	976280	REC_WORD	0.418	n/a	FUR	-999	12	[0, 0, 0]	n/a	FR1	0	R1042M
1888.574	0.993	976687	REC_WORD	1.232	n/a	BANK	-999	12	[0, 0, 0]	n/a	FR1	0	R1042M
1889.567	1.015	977184	REC_WORD	2.225	n/a	COUCH	-999	12	[0, 0, 0]	n/a	FR1	0	R1042M
1890.582	1.132	977691	REC_WORD	3.24	n/a	CROW	-999	12	[0, 0, 0]	n/a	FR1	0	R1042M
1891.714	1.411	978257	REC_WORD	4.372	n/a	CART	-999	12	[0, 0, 0]	n/a	FR1	0	R1042M
1893.125	1.423	978962	REC_WORD	5.783	n/a	SNAKE	-999	12	[0, 0, 0]	n/a	FR1	0	R1042M
1894.548	1.315	979674	REC_WORD	7.206	n/a	RAT	-999	12	[0, 0, 0]	n/a	FR1	0	R1042M
1895.863	21.494	980331	REC_WORD	8.521	n/a	WAND	-999	12	[0, 0, 0]	n/a	FR1	0	R1042M
1917.357	16.077	991077	REC_END	n/a	n/a	n/a	-999	12	[0, 0, 0]	n/a	FR1	0	R1042M
1933.434	0.0	999115	TRIAL	n/a	n/a	n/a	-999	13	[0, 0, 0]	n/a	FR1	0	R1042M
1933.434	10.0	999115	COUNTDOWN_START	n/a	n/a	n/a	-999	13	[0, 0, 0]	n/a	FR1	0	R1042M
1943.862	0.008	1004328	COUNTDOWN_END	n/a	n/a	n/a	-999	13	[0, 0, 0]	n/a	FR1	0	R1042M
1943.87	1.6	1004332	ORIENT	n/a	n/a	n/a	-999	13	[0, 0, 0]	n/a	FR1	0	R1042M
1946.453	1.6	1005624	WORD	n/a	wordpools/wordpool_EN.txt	WOOD	1	13	[0, 0, 0]	n/a	FR1	0	R1042M
1948.838	1.6	1006816	WORD	n/a	wordpools/wordpool_EN.txt	PASTE	2	13	[0, 0, 0]	n/a	FR1	0	R1042M
1951.238	1.6	1008016	WORD	n/a	wordpools/wordpool_EN.txt	FORK	3	13	[0, 0, 0]	n/a	FR1	0	R1042M
1953.656	1.6	1009225	WORD	n/a	wordpools/wordpool_EN.txt	PLATE	4	13	[0, 0, 0]	n/a	FR1	0	R1042M
1956.223	1.6	1010508	WORD	n/a	wordpools/wordpool_EN.txt	CHALK	5	13	[0, 0, 0]	n/a	FR1	0	R1042M
1958.757	1.6	1011775	WORD	n/a	wordpools/wordpool_EN.txt	STONE	6	13	[0, 0, 0]	n/a	FR1	0	R1042M
1961.29	1.6	1013041	WORD	n/a	wordpools/wordpool_EN.txt	CLOTH	7	13	[0, 0, 0]	n/a	FR1	0	R1042M
1963.757	1.6	1014275	WORD	n/a	wordpools/wordpool_EN.txt	BLUSH	8	13	[0, 0, 0]	n/a	FR1	0	R1042M
1966.308	1.6	1015550	WORD	n/a	wordpools/wordpool_EN.txt	GLOVE	9	13	[0, 0, 0]	n/a	FR1	0	R1042M
1968.925	1.6	1016859	WORD	n/a	wordpools/wordpool_EN.txt	TOOL	10	13	[0, 0, 0]	n/a	FR1	0	R1042M
1971.542	1.6	1018167	WORD	n/a	wordpools/wordpool_EN.txt	AXE	11	13	[0, 0, 0]	n/a	FR1	0	R1042M
1974.126	1.6	1019459	WORD	n/a	wordpools/wordpool_EN.txt	VASE	12	13	[0, 0, 0]	n/a	FR1	0	R1042M
1975.743	0.001	1020267	DISTRACT_START	n/a	n/a	n/a	-999	13	[0, 0, 0]	n/a	FR1	0	R1042M
1975.744	0.016	1020268	START	n/a	n/a	n/a	-999	13	[-999, -999, -999]	n/a	FR1	0	R1042M
1975.76	2.534	1020276	PROB	2.509	n/a	n/a	-999	13	[4, 3, 8]	15.0	FR1	0	R1042M
1978.294	2.517	1021543	PROB	2.495	n/a	n/a	-999	13	[9, 4, 1]	14.0	FR1	0	R1042M
1980.811	2.117	1022801	PROB	2.09	n/a	n/a	-999	13	[4, 4, 9]	17.0	FR1	0	R1042M
1982.928	2.734	1023859	PROB	2.701	n/a	n/a	-999	13	[5, 4, 5]	14.0	FR1	0	R1042M
1985.662	1.867	1025226	PROB	1.839	n/a	n/a	-999	13	[6, 5, 1]	12.0	FR1	0	R1042M
1987.529	1.683	1026160	PROB	1.66	n/a	n/a	-999	13	[4, 6, 1]	11.0	FR1	0	R1042M
1989.212	3.051	1027001	PROB	3.025	n/a	n/a	-999	13	[7, 6, 4]	17.0	FR1	0	R1042M
1992.263	3.798	1028526	PROB	3.798	n/a	n/a	-999	13	[9, 9, 8]	26.0	FR1	0	R1042M
1996.061	0.019	1030425	STOP	n/a	n/a	n/a	-999	13	[-999, -999, -999]	n/a	FR1	0	R1042M
1996.08	1.068	1030435	DISTRACT_END	n/a	n/a	n/a	-999	13	[0, 0, 0]	n/a	FR1	0	R1042M
1997.148	1.245	1030969	REC_START	n/a	n/a	n/a	-999	13	[0, 0, 0]	n/a	FR1	0	R1042M
1998.393	2.035	1031591	REC_WORD	1.245	n/a	PLATE	-999	13	[0, 0, 0]	n/a	FR1	0	R1042M
2000.428	1.073	1032608	REC_WORD	3.28	n/a	PASTE	-999	13	[0, 0, 0]	n/a	FR1	0	R1042M
2001.501	1.259	1033145	REC_WORD	4.353	n/a	WOOD	-999	13	[0, 0, 0]	n/a	FR1	0	R1042M
2002.76	1.629	1033774	REC_WORD	5.612	n/a	FORK	-999	13	[0, 0, 0]	n/a	FR1	0	R1042M
2004.389	1.142	1034589	REC_WORD	7.241	n/a	CLOTH	-999	13	[0, 0, 0]	n/a	FR1	0	R1042M
2005.531	1.581	1035160	REC_WORD	8.383	n/a	VASE	-999	13	[0, 0, 0]	n/a	FR1	0	R1042M
2007.112	4.673	1035950	REC_WORD	9.964	n/a	AXE	-999	13	[0, 0, 0]	n/a	FR1	0	R1042M
2011.785	14.388	1038286	REC_WORD	14.637	n/a	TOOL	-999	13	[0, 0, 0]	n/a	FR1	0	R1042M
2026.173	0.985	1045480	REC_WORD	29.025	n/a	STONE	-999	13	[0, 0, 0]	n/a	FR1	0	R1042M
2027.158	19.799	1045972	REC_END	n/a	n/a	n/a	-999	13	[0, 0, 0]	n/a	FR1	0	R1042M
2046.957	10.0	1055870	COUNTDOWN_START	n/a	n/a	n/a	-999	14	[0, 0, 0]	n/a	FR1	0	R1042M
2046.957	10.428	1055870	TRIAL	n/a	n/a	n/a	-999	14	[0, 0, 0]	n/a	FR1	0	R1042M
2057.385	0.006	1061084	COUNTDOWN_END	n/a	n/a	n/a	-999	14	[0, 0, 0]	n/a	FR1	0	R1042M
2057.391	1.6	1061087	ORIENT	n/a	n/a	n/a	-999	14	[0, 0, 0]	n/a	FR1	0	R1042M
2059.943	1.6	1062363	WORD	n/a	wordpools/wordpool_EN.txt	SQUARE	1	14	[0, 0, 0]	n/a	FR1	0	R1042M
2062.442	1.6	1063612	WORD	n/a	wordpools/wordpool_EN.txt	BEAN	2	14	[0, 0, 0]	n/a	FR1	0	R1042M
2064.86	1.6	1064821	WORD	n/a	wordpools/wordpool_EN.txt	SOUP	3	14	[0, 0, 0]	n/a	FR1	0	R1042M
2067.46	1.6	1066121	WORD	n/a	wordpools/wordpool_EN.txt	GLASS	4	14	[0, 0, 0]	n/a	FR1	0	R1042M
2069.845	1.6	1067313	WORD	n/a	wordpools/wordpool_EN.txt	RUG	5	14	[0, 0, 0]	n/a	FR1	0	R1042M
2072.327	1.6	1068554	WORD	n/a	wordpools/wordpool_EN.txt	STREET	6	14	[0, 0, 0]	n/a	FR1	0	R1042M
2074.795	1.6	1069788	WORD	n/a	wordpools/wordpool_EN.txt	BOY	7	14	[0, 0, 0]	n/a	FR1	0	R1042M
2077.196	1.6	1070988	WORD	n/a	wordpools/wordpool_EN.txt	DITCH	8	14	[0, 0, 0]	n/a	FR1	0	R1042M
2079.713	1.6	1072247	WORD	n/a	wordpools/wordpool_EN.txt	STRING	9	14	[0, 0, 0]	n/a	FR1	0	R1042M
2082.114	1.6	1073447	WORD	n/a	wordpools/wordpool_EN.txt	TEA	10	14	[0, 0, 0]	n/a	FR1	0	R1042M
2084.581	1.6	1074681	WORD	n/a	wordpools/wordpool_EN.txt	DIME	11	14	[0, 0, 0]	n/a	FR1	0	R1042M
2087.015	1.6	1075897	WORD	n/a	wordpools/wordpool_EN.txt	KITE	12	14	[0, 0, 0]	n/a	FR1	0	R1042M
2088.632	0.001	1076706	DISTRACT_START	n/a	n/a	n/a	-999	14	[0, 0, 0]	n/a	FR1	0	R1042M
2088.633	0.015	1076706	START	n/a	n/a	n/a	-999	14	[-999, -999, -999]	n/a	FR1	0	R1042M
2088.648	2.351	1076714	PROB	2.317	n/a	n/a	-999	14	[2, 4, 1]	7.0	FR1	0	R1042M
2090.999	1.7	1077889	PROB	1.67	n/a	n/a	-999	14	[8, 3, 1]	12.0	FR1	0	R1042M
2092.699	2.217	1078739	PROB	2.194	n/a	n/a	-999	14	[7, 2, 8]	17.0	FR1	0	R1042M
2094.916	2.201	1079847	PROB	2.169	n/a	n/a	-999	14	[2, 6, 7]	15.0	FR1	0	R1042M
2097.117	1.983	1080948	PROB	1.96	n/a	n/a	-999	14	[8, 1, 4]	13.0	FR1	0	R1042M
2099.1	2.451	1081939	PROB	2.417	n/a	n/a	-999	14	[1, 3, 6]	10.0	FR1	0	R1042M
2101.551	1.617	1083165	PROB	1.582	n/a	n/a	-999	14	[1, 7, 3]	11.0	FR1	0	R1042M
2103.168	2.667	1083973	PROB	2.637	n/a	n/a	-999	14	[7, 1, 9]	17.0	FR1	0	R1042M
2105.835	2.367	1085306	PROB	2.338	n/a	n/a	-999	14	[2, 5, 9]	16.0	FR1	0	R1042M
2108.202	1.995	1086490	PROB	1.995	n/a	n/a	-999	14	[4, 6, 5]	15.0	FR1	0	R1042M
2110.197	0.006	1087487	STOP	n/a	n/a	n/a	-999	14	[-999, -999, -999]	n/a	FR1	0	R1042M
2110.203	1.183	1087490	DISTRACT_END	n/a	n/a	n/a	-999	14	[0, 0, 0]	n/a	FR1	0	R1042M
2111.386	1.074	1088082	REC_START	n/a	n/a	n/a	-999	14	[0, 0, 0]	n/a	FR1	0	R1042M
2112.46	0.916	1088619	REC_WORD	1.074	n/a	SQUARE	-999	14	[0, 0, 0]	n/a	FR1	0	R1042M
2113.376	0.795	1089077	REC_WORD	1.99	n/a	BEAN	-999	14	[0, 0, 0]	n/a	FR1	0	R1042M
2114.171	1.172	1089474	REC_WORD	2.785	n/a	SOUP	-999	14	[0, 0, 0]	n/a	FR1	0	R1042M
2115.343	1.009	1090060	REC_WORD	3.957	n/a	BOY	-999	14	[0, 0, 0]	n/a	FR1	0	R1042M
2116.352	1.05	1090564	REC_WORD	4.966	n/a	DITCH	-999	14	[0, 0, 0]	n/a	FR1	0	R1042M
2117.402	1.241	1091089	REC_WORD	6.016	n/a	STREET	-999	14	[0, 0, 0]	n/a	FR1	0	R1042M
2118.643	1.193	1091710	REC_WORD	7.257	n/a	TEA	-999	14	[0, 0, 0]	n/a	FR1	0	R1042M
2119.836	1.492	1092306	REC_WORD	8.45	n/a	STRING	-999	14	[0, 0, 0]	n/a	FR1	0	R1042M
2121.328	6.936	1093052	REC_WORD	9.942	n/a	KITE	-999	14	[0, 0, 0]	n/a	FR1	0	R1042M
2128.264	13.132	1096520	REC_WORD	16.878	n/a	DIME	-999	14	[0, 0, 0]	n/a	FR1	0	R1042M
2141.396	18.249	1103085	REC_END	n/a	n/a	n/a	-999	14	[0, 0, 0]	n/a	FR1	0	R1042M
2159.645	10.0	1112209	COUNTDOWN_START	n/a	n/a	n/a	-999	15	[0, 0, 0]	n/a	FR1	0	R1042M
2159.646	10.427	1112209	TRIAL	n/a	n/a	n/a	-999	15	[0, 0, 0]	n/a	FR1	0	R1042M
2170.073	0.008	1117422	COUNTDOWN_END	n/a	n/a	n/a	-999	15	[0, 0, 0]	n/a	FR1	0	R1042M
2170.081	1.6	1117426	ORIENT	n/a	n/a	n/a	-999	15	[0, 0, 0]	n/a	FR1	0	R1042M
2172.598	1.6	1118684	WORD	n/a	wordpools/wordpool_EN.txt	BEAR	1	15	[0, 0, 0]	n/a	FR1	0	R1042M
2175.065	1.6	1119918	WORD	n/a	wordpools/wordpool_EN.txt	WING	2	15	[0, 0, 0]	n/a	FR1	0	R1042M
2177.565	1.6	1121168	WORD	n/a	wordpools/wordpool_EN.txt	DOOR	3	15	[0, 0, 0]	n/a	FR1	0	R1042M
2180.183	1.6	1122477	WORD	n/a	wordpools/wordpool_EN.txt	PLANT	4	15	[0, 0, 0]	n/a	FR1	0	R1042M
2182.733	1.6	1123751	WORD	n/a	wordpools/wordpool_EN.txt	ROOT	5	15	[0, 0, 0]	n/a	FR1	0	R1042M
2185.349	1.6	1125059	WORD	n/a	wordpools/wordpool_EN.txt	LEAF	6	15	[0, 0, 0]	n/a	FR1	0	R1042M
2187.934	1.6	1126352	WORD	n/a	wordpools/wordpool_EN.txt	SNOW	7	15	[0, 0, 0]	n/a	FR1	0	R1042M
2190.4	1.6	1127585	WORD	n/a	wordpools/wordpool_EN.txt	BLOOM	8	15	[0, 0, 0]	n/a	FR1	0	R1042M
2192.785	1.6	1128777	WORD	n/a	wordpools/wordpool_EN.txt	STRAW	9	15	[0, 0, 0]	n/a	FR1	0	R1042M
2195.236	1.6	1130002	WORD	n/a	wordpools/wordpool_EN.txt	BUSH	10	15	[0, 0, 0]	n/a	FR1	0	R1042M
2197.769	1.6	1131269	WORD	n/a	wordpools/wordpool_EN.txt	BRANCH	11	15	[0, 0, 0]	n/a	FR1	0	R1042M
2200.386	1.6	1132577	WORD	n/a	wordpools/wordpool_EN.txt	TOY	12	15	[0, 0, 0]	n/a	FR1	0	R1042M
2202.004	0.0	1133386	DISTRACT_START	n/a	n/a	n/a	-999	15	[0, 0, 0]	n/a	FR1	0	R1042M
2202.004	0.016	1133386	START	n/a	n/a	n/a	-999	15	[-999, -999, -999]	n/a	FR1	0	R1042M
2202.02	3.601	1133394	PROB	3.577	n/a	n/a	-999	15	[6, 8, 8]	22.0	FR1	0	R1042M
2205.621	1.884	1135194	PROB	1.855	n/a	n/a	-999	15	[3, 7, 2]	12.0	FR1	0	R1042M
2207.505	2.033	1136136	PROB	2.004	n/a	n/a	-999	15	[8, 7, 2]	17.0	FR1	0	R1042M
2209.538	2.8	1137153	PROB	2.771	n/a	n/a	-999	15	[5, 7, 6]	18.0	FR1	0	R1042M
2212.338	2.218	1138552	PROB	2.187	n/a	n/a	-999	15	[3, 5, 6]	14.0	FR1	0	R1042M
2214.556	2.35	1139661	PROB	2.321	n/a	n/a	-999	15	[3, 4, 7]	14.0	FR1	0	R1042M
2216.906	4.417	1140836	PROB	4.395	n/a	n/a	-999	15	[5, 8, 4]	17.0	FR1	0	R1042M
2221.323	2.906	1143044	PROB	2.906	n/a	n/a	-999	15	[7, 4, 8]	19.0	FR1	0	R1042M
2224.229	0.012	1144497	STOP	n/a	n/a	n/a	-999	15	[-999, -999, -999]	n/a	FR1	0	R1042M
2224.241	1.201	1144503	DISTRACT_END	n/a	n/a	n/a	-999	15	[0, 0, 0]	n/a	FR1	0	R1042M
2225.442	1.009	1145104	REC_START	n/a	n/a	n/a	-999	15	[0, 0, 0]	n/a	FR1	0	R1042M
2226.451	0.654	1145608	REC_WORD	1.009	n/a	BEAR	-999	15	[0, 0, 0]	n/a	FR1	0	R1042M
2227.105	0.974	1145935	REC_WORD	1.663	n/a	WING	-999	15	[0, 0, 0]	n/a	FR1	0	R1042M
2228.079	1.505	1146422	REC_WORD	2.637	n/a	DOOR	-999	15	[0, 0, 0]	n/a	FR1	0	R1042M
2229.584	1.147	1147175	REC_WORD	4.142	n/a	BRANCH	-999	15	[0, 0, 0]	n/a	FR1	0	R1042M
2230.731	1.071	1147748	REC_WORD	5.289	n/a	ROOT	-999	15	[0, 0, 0]	n/a	FR1	0	R1042M
2231.802	1.481	1148283	REC_WORD	6.36	n/a	PLANT	-999	15	[0, 0, 0]	n/a	FR1	0	R1042M
2233.283	3.198	1149024	REC_WORD	7.841	n/a	LEAF	-999	15	[0, 0, 0]	n/a	FR1	0	R1042M
2236.481	6.164	1150623	REC_WORD	11.039	n/a	BUSH	-999	15	[0, 0, 0]	n/a	FR1	0	R1042M
2242.645	12.806	1153704	REC_WORD	17.203	n/a	STRAW	-999	15	[0, 0, 0]	n/a	FR1	0	R1042M
2255.451	24.967	1160107	REC_END	n/a	n/a	n/a	-999	15	[0, 0, 0]	n/a	FR1	0	R1042M
2280.418	0.0	1172589	TRIAL	n/a	n/a	n/a	-999	16	[0, 0, 0]	n/a	FR1	0	R1042M
2280.418	10.0	1172589	COUNTDOWN_START	n/a	n/a	n/a	-999	16	[0, 0, 0]	n/a	FR1	0	R1042M
2290.846	0.008	1177802	COUNTDOWN_END	n/a	n/a	n/a	-999	16	[0, 0, 0]	n/a	FR1	0	R1042M
2290.854	1.6	1177806	ORIENT	n/a	n/a	n/a	-999	16	[0, 0, 0]	n/a	FR1	0	R1042M
2293.354	1.6	1179056	WORD	n/a	wordpools/wordpool_EN.txt	GRAPE	1	16	[0, 0, 0]	n/a	FR1	0	R1042M
2295.788	1.6	1180273	WORD	n/a	wordpools/wordpool_EN.txt	STORE	2	16	[0, 0, 0]	n/a	FR1	0	R1042M
2298.321	1.6	1181539	WORD	n/a	wordpools/wordpool_EN.txt	PHONE	3	16	[0, 0, 0]	n/a	FR1	0	R1042M
2300.756	1.6	1182757	WORD	n/a	wordpools/wordpool_EN.txt	PEN	4	16	[0, 0, 0]	n/a	FR1	0	R1042M
2303.173	1.6	1183965	WORD	n/a	wordpools/wordpool_EN.txt	BADGE	5	16	[0, 0, 0]	n/a	FR1	0	R1042M
2305.807	1.6	1185282	WORD	n/a	wordpools/wordpool_EN.txt	MUG	6	16	[0, 0, 0]	n/a	FR1	0	R1042M
2308.274	1.6	1186515	WORD	n/a	wordpools/wordpool_EN.txt	FENCE	7	16	[0, 0, 0]	n/a	FR1	0	R1042M
2310.708	1.6	1187732	WORD	n/a	wordpools/wordpool_EN.txt	VAN	8	16	[0, 0, 0]	n/a	FR1	0	R1042M
2313.292	1.6	1189024	WORD	n/a	wordpools/wordpool_EN.txt	BOOK	9	16	[0, 0, 0]	n/a	FR1	0	R1042M
2315.742	1.6	1190249	WORD	n/a	wordpools/wordpool_EN.txt	DOG	10	16	[0, 0, 0]	n/a	FR1	0	R1042M
2318.159	1.6	1191457	WORD	n/a	wordpools/wordpool_EN.txt	JAIL	11	16	[0, 0, 0]	n/a	FR1	0	R1042M
2320.727	1.6	1192741	WORD	n/a	wordpools/wordpool_EN.txt	APE	12	16	[0, 0, 0]	n/a	FR1	0	R1042M
2322.343	0.0	1193549	DISTRACT_START	n/a	n/a	n/a	-999	16	[0, 0, 0]	n/a	FR1	0	R1042M
2322.343	0.016	1193549	START	n/a	n/a	n/a	-999	16	[-999, -999, -999]	n/a	FR1	0	R1042M
2322.359	2.718	1193557	PROB	2.694	n/a	n/a	-999	16	[1, 9, 7]	17.0	FR1	0	R1042M
2325.077	2.834	1194916	PROB	2.8	n/a	n/a	-999	16	[7, 8, 8]	23.0	FR1	0	R1042M
2327.911	2.134	1196333	PROB	2.11	n/a	n/a	-999	16	[5, 7, 8]	23.0	FR1	0	R1042M
2330.045	2.717	1197400	PROB	2.696	n/a	n/a	-999	16	[6, 6, 4]	16.0	FR1	0	R1042M
2332.762	2.184	1198758	PROB	2.155	n/a	n/a	-999	16	[4, 6, 9]	19.0	FR1	0	R1042M
2334.946	1.8	1199850	PROB	1.771	n/a	n/a	-999	16	[4, 9, 1]	14.0	FR1	0	R1042M
2336.746	2.251	1200750	PROB	2.219	n/a	n/a	-999	16	[8, 3, 5]	16.0	FR1	0	R1042M
2338.997	2.15	1201875	PROB	2.12	n/a	n/a	-999	16	[2, 4, 5]	11.0	FR1	0	R1042M
2341.147	1.313	1202950	PROB	1.313	n/a	n/a	-999	16	[1, 1, 1]	3.0	FR1	0	R1042M
2342.46	0.02	1203607	STOP	n/a	n/a	n/a	-999	16	[-999, -999, -999]	n/a	FR1	0	R1042M
2342.48	1.085	1203617	DISTRACT_END	n/a	n/a	n/a	-999	16	[0, 0, 0]	n/a	FR1	0	R1042M
2343.565	1.264	1204159	REC_START	n/a	n/a	n/a	-999	16	[0, 0, 0]	n/a	FR1	0	R1042M
2344.829	1.367	1204791	REC_WORD	1.264	n/a	MUG	-999	16	[0, 0, 0]	n/a	FR1	0	R1042M
2346.196	1.136	1205475	REC_WORD	2.631	n/a	BADGE	-999	16	[0, 0, 0]	n/a	FR1	0	R1042M
2347.332	1.456	1206042	REC_WORD	3.767	n/a	PEN	-999	16	[0, 0, 0]	n/a	FR1	0	R1042M
2348.788	1.368	1206770	REC_WORD	5.223	n/a	GRAPE	-999	16	[0, 0, 0]	n/a	FR1	0	R1042M
2350.156	3.771	1207454	REC_WORD	6.591	n/a	STORE	-999	16	[0, 0, 0]	n/a	FR1	0	R1042M
2353.927	3.948	1209340	REC_WORD	10.362	n/a	PHONE	-999	16	[0, 0, 0]	n/a	FR1	0	R1042M
2357.875	1.497	1211313	REC_WORD	14.31	n/a	DOG	-999	16	[0, 0, 0]	n/a	FR1	0	R1042M
2359.372	14.204	1212062	REC_WORD	15.807	n/a	VAN	-999	16	[0, 0, 0]	n/a	FR1	0	R1042M
2373.576	18.981	1219163	REC_END	n/a	n/a	n/a	-999	16	[0, 0, 0]	n/a	FR1	0	R1042M
2392.557	0.0	1228653	TRIAL	n/a	n/a	n/a	-999	17	[0, 0, 0]	n/a	FR1	0	R1042M
2392.557	10.0	1228653	COUNTDOWN_START	n/a	n/a	n/a	-999	17	[0, 0, 0]	n/a	FR1	0	R1042M
2402.985	0.007	1233866	COUNTDOWN_END	n/a	n/a	n/a	-999	17	[0, 0, 0]	n/a	FR1	0	R1042M
2402.992	1.6	1233870	ORIENT	n/a	n/a	n/a	-999	17	[0, 0, 0]	n/a	FR1	0	R1042M
2405.442	1.6	1235094	WORD	n/a	wordpools/wordpool_EN.txt	BARN	1	17	[0, 0, 0]	n/a	FR1	0	R1042M
2407.893	1.6	1236320	WORD	n/a	wordpools/wordpool_EN.txt	LAKE	2	17	[0, 0, 0]	n/a	FR1	0	R1042M
2410.443	1.6	1237595	WORD	n/a	wordpools/wordpool_EN.txt	CRANE	3	17	[0, 0, 0]	n/a	FR1	0	R1042M
2412.928	1.6	1238837	WORD	n/a	wordpools/wordpool_EN.txt	CANE	4	17	[0, 0, 0]	n/a	FR1	0	R1042M
2415.495	1.6	1240120	WORD	n/a	wordpools/wordpool_EN.txt	HEN	5	17	[0, 0, 0]	n/a	FR1	0	R1042M
2417.912	1.6	1241329	WORD	n/a	wordpools/wordpool_EN.txt	GRASS	6	17	[0, 0, 0]	n/a	FR1	0	R1042M
2420.395	1.6	1242570	WORD	n/a	wordpools/wordpool_EN.txt	JEEP	7	17	[0, 0, 0]	n/a	FR1	0	R1042M
2422.83	1.6	1243788	WORD	n/a	wordpools/wordpool_EN.txt	CORN	8	17	[0, 0, 0]	n/a	FR1	0	R1042M
2425.429	1.6	1245087	WORD	n/a	wordpools/wordpool_EN.txt	HILL	9	17	[0, 0, 0]	n/a	FR1	0	R1042M
2427.931	1.6	1246338	WORD	n/a	wordpools/wordpool_EN.txt	SLEEVE	10	17	[0, 0, 0]	n/a	FR1	0	R1042M
2430.498	1.6	1247621	WORD	n/a	wordpools/wordpool_EN.txt	OAR	11	17	[0, 0, 0]	n/a	FR1	0	R1042M
2433.015	1.6	1248880	WORD	n/a	wordpools/wordpool_EN.txt	TENT	12	17	[0, 0, 0]	n/a	FR1	0	R1042M
2434.632	0.001	1249688	DISTRACT_START	n/a	n/a	n/a	-999	17	[0, 0, 0]	n/a	FR1	0	R1042M
2434.633	0.016	1249688	START	n/a	n/a	n/a	-999	17	[-999, -999, -999]	n/a	FR1	0	R1042M
2434.649	3.05	1249696	PROB	3.02	n/a	n/a	-999	17	[6, 8, 3]	17.0	FR1	0	R1042M
2437.699	1.901	1251221	PROB	1.874	n/a	n/a	-999	17	[5, 3, 6]	14.0	FR1	0	R1042M
2439.6	2.017	1252172	PROB	1.989	n/a	n/a	-999	17	[7, 3, 4]	14.0	FR1	0	R1042M
2441.617	2.083	1253180	PROB	2.052	n/a	n/a	-999	17	[2, 8, 9]	19.0	FR1	0	R1042M
2443.7	3.034	1254221	PROB	3.001	n/a	n/a	-999	17	[7, 9, 2]	18.0	FR1	0	R1042M
2446.734	3.401	1255738	PROB	3.367	n/a	n/a	-999	17	[6, 6, 5]	17.0	FR1	0	R1042M
2450.135	2.45	1257439	PROB	2.43	n/a	n/a	-999	17	[9, 3, 2]	14.0	FR1	0	R1042M
2452.585	2.62	1258664	PROB	2.62	n/a	n/a	-999	17	[1, 6, 8]	15.0	FR1	0	R1042M
2455.205	0.014	1259973	STOP	n/a	n/a	n/a	-999	17	[-999, -999, -999]	n/a	FR1	0	R1042M
2455.219	1.085	1259980	DISTRACT_END	n/a	n/a	n/a	-999	17	[0, 0, 0]	n/a	FR1	0	R1042M
2456.304	1.024	1260523	REC_START	n/a	n/a	n/a	-999	17	[0, 0, 0]	n/a	FR1	0	R1042M
2457.328	0.83	1261035	REC_WORD	1.024	n/a	BARN	-999	17	[0, 0, 0]	n/a	FR1	0	R1042M
2458.158	1.309	1261450	REC_WORD	1.854	n/a	CRANE	-999	17	[0, 0, 0]	n/a	FR1	0	R1042M
2459.467	1.226	1262104	REC_WORD	3.163	n/a	CANE	-999	17	[0, 0, 0]	n/a	FR1	0	R1042M
2460.693	2.384	1262717	REC_WORD	4.389	n/a	GRASS	-999	17	[0, 0, 0]	n/a	FR1	0	R1042M
2463.077	1.078	1263909	REC_WORD	6.773	n/a	JEEP	-999	17	[0, 0, 0]	n/a	FR1	0	R1042M
2464.155	1.467	1264448	REC_WORD	7.851	n/a	HILL	-999	17	[0, 0, 0]	n/a	FR1	0	R1042M
2465.622	1.424	1265181	REC_WORD	9.318	n/a	CORN	-999	17	[0, 0, 0]	n/a	FR1	0	R1042M
2467.046	1.428	1265893	REC_WORD	10.742	n/a	OAR	-999	17	[0, 0, 0]	n/a	FR1	0	R1042M
2468.474	3.844	1266607	REC_WORD	12.17	n/a	SLEEVE	-999	17	[0, 0, 0]	n/a	FR1	0	R1042M
2472.318	2.016	1268529	REC_WORD	16.014	n/a	HEN	-999	17	[0, 0, 0]	n/a	FR1	0	R1042M
2474.334	11.979	1269537	REC_WORD	18.03	n/a	LAKE	-999	17	[0, 0, 0]	n/a	FR1	0	R1042M
2486.313	29.285	1275526	REC_END	n/a	n/a	n/a	-999	17	[0, 0, 0]	n/a	FR1	0	R1042M
2515.598	0.0	1290167	TRIAL	n/a	n/a	n/a	-999	18	[0, 0, 0]	n/a	FR1	0	R1042M
2515.598	10.0	1290167	COUNTDOWN_START	n/a	n/a	n/a	-999	18	[0, 0, 0]	n/a	FR1	0	R1042M
2526.026	0.007	1295380	COUNTDOWN_END	n/a	n/a	n/a	-999	18	[0, 0, 0]	n/a	FR1	0	R1042M
2526.033	1.6	1295384	ORIENT	n/a	n/a	n/a	-999	18	[0, 0, 0]	n/a	FR1	0	R1042M
2528.65	1.6	1296692	WORD	n/a	wordpools/wordpool_EN.txt	TREE	1	18	[0, 0, 0]	n/a	FR1	0	R1042M
2531.167	1.6	1297950	WORD	n/a	wordpools/wordpool_EN.txt	VINE	2	18	[0, 0, 0]	n/a	FR1	0	R1042M
2533.685	1.6	1299209	WORD	n/a	wordpools/wordpool_EN.txt	MILK	3	18	[0, 0, 0]	n/a	FR1	0	R1042M
2536.135	1.6	1300434	WORD	n/a	wordpools/wordpool_EN.txt	WHEEL	4	18	[0, 0, 0]	n/a	FR1	0	R1042M
2538.619	1.6	1301676	WORD	n/a	wordpools/wordpool_EN.txt	STEM	5	18	[0, 0, 0]	n/a	FR1	0	R1042M
2541.153	1.6	1302943	WORD	n/a	wordpools/wordpool_EN.txt	CONE	6	18	[0, 0, 0]	n/a	FR1	0	R1042M
2543.553	1.6	1304143	WORD	n/a	wordpools/wordpool_EN.txt	ELF	7	18	[0, 0, 0]	n/a	FR1	0	R1042M
2545.97	1.6	1305351	WORD	n/a	wordpools/wordpool_EN.txt	SEED	8	18	[0, 0, 0]	n/a	FR1	0	R1042M
2548.47	1.6	1306601	WORD	n/a	wordpools/wordpool_EN.txt	THUMB	9	18	[0, 0, 0]	n/a	FR1	0	R1042M
2551.054	1.6	1307893	WORD	n/a	wordpools/wordpool_EN.txt	BOOT	10	18	[0, 0, 0]	n/a	FR1	0	R1042M
2553.488	1.6	1309110	WORD	n/a	wordpools/wordpool_EN.txt	WORM	11	18	[0, 0, 0]	n/a	FR1	0	R1042M
2555.972	1.6	1310352	WORD	n/a	wordpools/wordpool_EN.txt	COW	12	18	[0, 0, 0]	n/a	FR1	0	R1042M
2557.589	0.001	1311160	DISTRACT_START	n/a	n/a	n/a	-999	18	[0, 0, 0]	n/a	FR1	0	R1042M
2557.59	0.016	1311161	START	n/a	n/a	n/a	-999	18	[-999, -999, -999]	n/a	FR1	0	R1042M
2557.606	2.367	1311169	PROB	2.335	n/a	n/a	-999	18	[7, 1, 4]	12.0	FR1	0	R1042M
2559.973	1.934	1312352	PROB	1.912	n/a	n/a	-999	18	[1, 1, 2]	4.0	FR1	0	R1042M
2561.907	1.95	1313319	PROB	1.914	n/a	n/a	-999	18	[2, 8, 3]	13.0	FR1	0	R1042M
2563.857	1.516	1314294	PROB	1.483	n/a	n/a	-999	18	[5, 5, 2]	12.0	FR1	0	R1042M
2565.373	1.984	1315052	PROB	1.959	n/a	n/a	-999	18	[1, 5, 2]	8.0	FR1	0	R1042M
2567.357	3.017	1316044	PROB	2.983	n/a	n/a	-999	18	[8, 8, 7]	23.0	FR1	0	R1042M
2570.374	2.435	1317552	PROB	2.399	n/a	n/a	-999	18	[9, 5, 5]	19.0	FR1	0	R1042M
2572.809	2.133	1318769	PROB	2.1	n/a	n/a	-999	18	[2, 3, 5]	10.0	FR1	0	R1042M
2574.942	2.584	1319836	PROB	2.551	n/a	n/a	-999	18	[4, 6, 6]	16.0	FR1	0	R1042M
2577.526	2.519	1321128	PROB	2.519	n/a	n/a	-999	18	[3, 9, 7]	19.0	FR1	0	R1042M
2580.045	0.015	1322387	STOP	n/a	n/a	n/a	-999	18	[-999, -999, -999]	n/a	FR1	0	R1042M
2580.06	1.167	1322394	DISTRACT_END	n/a	n/a	n/a	-999	18	[0, 0, 0]	n/a	FR1	0	R1042M
2581.227	1.5	1322978	REC_START	n/a	n/a	n/a	-999	18	[0, 0, 0]	n/a	FR1	0	R1042M
2582.727	0.874	1323728	REC_WORD	1.5	n/a	TREE	-999	18	[0, 0, 0]	n/a	FR1	0	R1042M
2583.601	1.058	1324165	REC_WORD	2.374	n/a	VINE	-999	18	[0, 0, 0]	n/a	FR1	0	R1042M
2584.659	0.909	1324694	REC_WORD	3.432	n/a	MILK	-999	18	[0, 0, 0]	n/a	FR1	0	R1042M
2585.568	1.532	1325148	REC_WORD	4.341	n/a	STEM	-999	18	[0, 0, 0]	n/a	FR1	0	R1042M
2587.1	1.476	1325914	REC_WORD	5.873	n/a	ELF	-999	18	[0, 0, 0]	n/a	FR1	0	R1042M
2588.576	5.71	1326652	REC_WORD	7.349	n/a	THUMB	-999	18	[0, 0, 0]	n/a	FR1	0	R1042M
2594.286	7.306	1329507	REC_WORD	13.059	n/a	ROPE	-999	18	[0, 0, 0]	n/a	FR1	0	R1042M
2601.592	0.975	1333159	REC_WORD	20.365	n/a	CONE	-999	18	[0, 0, 0]	n/a	FR1	0	R1042M
2602.567	8.675	1333647	REC_WORD	21.34	n/a	WHEEL	-999	18	[0, 0, 0]	n/a	FR1	0	R1042M
2611.242	29.63	1337984	REC_END	n/a	n/a	n/a	-999	18	[0, 0, 0]	n/a	FR1	0	R1042M
2640.872	0.0	1352797	TRIAL	n/a	n/a	n/a	-999	19	[0, 0, 0]	n/a	FR1	0	R1042M
2640.872	10.0	1352797	COUNTDOWN_START	n/a	n/a	n/a	-999	19	[0, 0, 0]	n/a	FR1	0	R1042M
2651.3	0.007	1358011	COUNTDOWN_END	n/a	n/a	n/a	-999	19	[0, 0, 0]	n/a	FR1	0	R1042M
2651.307	1.6	1358014	ORIENT	n/a	n/a	n/a	-999	19	[0, 0, 0]	n/a	FR1	0	R1042M
2653.858	1.6	1359290	WORD	n/a	wordpools/wordpool_EN.txt	FLAME	1	19	[0, 0, 0]	n/a	FR1	0	R1042M
2656.474	1.6	1360597	WORD	n/a	wordpools/wordpool_EN.txt	SPARK	2	19	[0, 0, 0]	n/a	FR1	0	R1042M
2658.909	1.6	1361815	WORD	n/a	wordpools/wordpool_EN.txt	LEG	3	19	[0, 0, 0]	n/a	FR1	0	R1042M
2661.493	1.6	1363107	WORD	n/a	wordpools/wordpool_EN.txt	BOWL	4	19	[0, 0, 0]	n/a	FR1	0	R1042M
2663.96	1.6	1364340	WORD	n/a	wordpools/wordpool_EN.txt	PURSE	5	19	[0, 0, 0]	n/a	FR1	0	R1042M
2666.442	1.6	1365581	WORD	n/a	wordpools/wordpool_EN.txt	NOSE	6	19	[0, 0, 0]	n/a	FR1	0	R1042M
2668.911	1.6	1366815	WORD	n/a	wordpools/wordpool_EN.txt	FACE	7	19	[0, 0, 0]	n/a	FR1	0	R1042M
2671.36	1.6	1368040	WORD	n/a	wordpools/wordpool_EN.txt	EEL	8	19	[0, 0, 0]	n/a	FR1	0	R1042M
2673.762	1.6	1369241	WORD	n/a	wordpools/wordpool_EN.txt	HOSE	9	19	[0, 0, 0]	n/a	FR1	0	R1042M
2676.328	1.6	1370523	WORD	n/a	wordpools/wordpool_EN.txt	CHAIR	10	19	[0, 0, 0]	n/a	FR1	0	R1042M
2678.796	1.6	1371757	WORD	n/a	wordpools/wordpool_EN.txt	SEAT	11	19	[0, 0, 0]	n/a	FR1	0	R1042M
2681.196	1.6	1372957	WORD	n/a	wordpools/wordpool_EN.txt	SUIT	12	19	[0, 0, 0]	n/a	FR1	0	R1042M
2682.813	0.001	1373766	DISTRACT_START	n/a	n/a	n/a	-999	19	[0, 0, 0]	n/a	FR1	0	R1042M
2682.814	0.016	1373766	START	n/a	n/a	n/a	-999	19	[-999, -999, -999]	n/a	FR1	0	R1042M
2682.83	2.45	1373774	PROB	2.423	n/a	n/a	-999	19	[1, 8, 7]	16.0	FR1	0	R1042M
2685.28	2.718	1374999	PROB	2.693	n/a	n/a	-999	19	[9, 3, 9]	21.0	FR1	0	R1042M
2687.998	2.633	1376358	PROB	2.599	n/a	n/a	-999	19	[3, 8, 1]	12.0	FR1	0	R1042M
2690.631	4.601	1377674	PROB	4.566	n/a	n/a	-999	19	[9, 2, 4]	15.0	FR1	0	R1042M
2695.232	2.25	1379974	PROB	2.22	n/a	n/a	-999	19	[8, 4, 3]	15.0	FR1	0	R1042M
2697.482	2.801	1381099	PROB	2.771	n/a	n/a	-999	19	[1, 8, 7]	16.0	FR1	0	R1042M
2700.283	2.778	1382500	PROB	2.778	n/a	n/a	-999	19	[2, 4, 9]	15.0	FR1	0	R1042M
2703.061	0.006	1383889	STOP	n/a	n/a	n/a	-999	19	[-999, -999, -999]	n/a	FR1	0	R1042M
2703.067	1.068	1383892	DISTRACT_END	n/a	n/a	n/a	-999	19	[0, 0, 0]	n/a	FR1	0	R1042M
2704.135	1.914	1384426	REC_START	n/a	n/a	n/a	-999	19	[0, 0, 0]	n/a	FR1	0	R1042M
2706.049	1.494	1385382	REC_WORD	1.914	n/a	FACE	-999	19	[0, 0, 0]	n/a	FR1	0	R1042M
2707.543	1.488	1386129	REC_WORD	3.408	n/a	NOSE	-999	19	[0, 0, 0]	n/a	FR1	0	R1042M
2709.031	1.239	1386873	REC_WORD	4.896	n/a	PURSE	-999	19	[0, 0, 0]	n/a	FR1	0	R1042M
2710.27	1.378	1387493	REC_WORD	6.135	n/a	BOWL	-999	19	[0, 0, 0]	n/a	FR1	0	R1042M
2711.648	4.672	1388182	REC_WORD	7.513	n/a	LEG	-999	19	[0, 0, 0]	n/a	FR1	0	R1042M
2716.32	2.905	1390517	REC_WORD	12.185	n/a	SEAT	-999	19	[0, 0, 0]	n/a	FR1	0	R1042M
2719.225	2.042	1391970	REC_WORD	15.09	n/a	CHAIR	-999	19	[0, 0, 0]	n/a	FR1	0	R1042M
2721.267	12.878	1392991	REC_WORD	17.132	n/a	SUIT	-999	19	[0, 0, 0]	n/a	FR1	0	R1042M
2734.145	9.58	1399429	REC_END	n/a	n/a	n/a	-999	19	[0, 0, 0]	n/a	FR1	0	R1042M
2743.725	0.0	1404218	TRIAL	n/a	n/a	n/a	-999	20	[0, 0, 0]	n/a	FR1	0	R1042M
2743.725	10.0	1404218	COUNTDOWN_START	n/a	n/a	n/a	-999	20	[0, 0, 0]	n/a	FR1	0	R1042M
2754.153	0.007	1409432	COUNTDOWN_END	n/a	n/a	n/a	-999	20	[0, 0, 0]	n/a	FR1	0	R1042M
2754.16	1.6	1409435	ORIENT	n/a	n/a	n/a	-999	20	[0, 0, 0]	n/a	FR1	0	R1042M
2756.778	1.6	1410744	WORD	n/a	wordpools/wordpool_EN.txt	CAVE	1	20	[0, 0, 0]	n/a	FR1	0	R1042M
2759.245	1.6	1411978	WORD	n/a	wordpools/wordpool_EN.txt	STEAM	2	20	[0, 0, 0]	n/a	FR1	0	R1042M
2761.712	1.6	1413211	WORD	n/a	wordpools/wordpool_EN.txt	CAPE	3	20	[0, 0, 0]	n/a	FR1	0	R1042M
2764.279	1.6	1414494	WORD	n/a	wordpools/wordpool_EN.txt	SALT	4	20	[0, 0, 0]	n/a	FR1	0	R1042M
2766.796	1.6	1415753	WORD	n/a	wordpools/wordpool_EN.txt	BOMB	5	20	[0, 0, 0]	n/a	FR1	0	R1042M
2769.28	1.6	1416995	WORD	n/a	wordpools/wordpool_EN.txt	MOUTH	6	20	[0, 0, 0]	n/a	FR1	0	R1042M
2771.68	1.6	1418195	WORD	n/a	wordpools/wordpool_EN.txt	CLAY	7	20	[0, 0, 0]	n/a	FR1	0	R1042M
2774.264	1.6	1419486	WORD	n/a	wordpools/wordpool_EN.txt	PLANE	8	20	[0, 0, 0]	n/a	FR1	0	R1042M
2776.731	1.6	1420720	WORD	n/a	wordpools/wordpool_EN.txt	ICE	9	20	[0, 0, 0]	n/a	FR1	0	R1042M
2779.232	1.6	1421970	WORD	n/a	wordpools/wordpool_EN.txt	CORD	10	20	[0, 0, 0]	n/a	FR1	0	R1042M
2781.649	1.6	1423178	WORD	n/a	wordpools/wordpool_EN.txt	CUBE	11	20	[0, 0, 0]	n/a	FR1	0	R1042M
2784.15	1.6	1424429	WORD	n/a	wordpools/wordpool_EN.txt	SMOKE	12	20	[0, 0, 0]	n/a	FR1	0	R1042M
2785.767	0.0	1425237	DISTRACT_START	n/a	n/a	n/a	-999	20	[0, 0, 0]	n/a	FR1	0	R1042M
2785.767	0.016	1425237	START	n/a	n/a	n/a	-999	20	[-999, -999, -999]	n/a	FR1	0	R1042M
2785.783	2.583	1425245	PROB	2.557	n/a	n/a	-999	20	[4, 4, 9]	17.0	FR1	0	R1042M
2788.366	2.984	1426537	PROB	2.95	n/a	n/a	-999	20	[7, 9, 4]	20.0	FR1	0	R1042M
2791.35	2.017	1428028	PROB	1.982	n/a	n/a	-999	20	[4, 3, 5]	12.0	FR1	0	R1042M
2793.367	2.418	1429037	PROB	2.389	n/a	n/a	-999	20	[8, 3, 6]	17.0	FR1	0	R1042M
2795.785	2.167	1430246	PROB	2.132	n/a	n/a	-999	20	[8, 9, 1]	18.0	FR1	0	R1042M
2797.952	2.151	1431329	PROB	2.117	n/a	n/a	-999	20	[2, 5, 8]	15.0	FR1	0	R1042M
2800.103	2.95	1432405	PROB	2.918	n/a	n/a	-999	20	[6, 8, 3]	19.0	FR1	0	R1042M
2803.053	1.801	1433879	PROB	1.776	n/a	n/a	-999	20	[1, 5, 4]	10.0	FR1	0	R1042M
2804.854	2.295	1434780	PROB	2.295	n/a	n/a	-999	20	[5, 3, 8]	16.0	FR1	0	R1042M
2807.149	0.005	1435927	STOP	n/a	n/a	n/a	-999	20	[-999, -999, -999]	n/a	FR1	0	R1042M
2807.154	1.2	1435930	DISTRACT_END	n/a	n/a	n/a	-999	20	[0, 0, 0]	n/a	FR1	0	R1042M
2808.354	1.418	1436530	REC_START	n/a	n/a	n/a	-999	20	[0, 0, 0]	n/a	FR1	0	R1042M
2809.772	1.188	1437239	REC_WORD	1.418	n/a	CAVE	-999	20	[0, 0, 0]	n/a	FR1	0	R1042M
2810.96	1.524	1437832	REC_WORD	2.606	n/a	MOUTH	-999	20	[0, 0, 0]	n/a	FR1	0	R1042M
2812.484	1.194	1438594	REC_WORD	4.13	n/a	CAPE	-999	20	[0, 0, 0]	n/a	FR1	0	R1042M
2813.678	1.426	1439191	REC_WORD	5.324	n/a	CORD	-999	20	[0, 0, 0]	n/a	FR1	0	R1042M
2815.104	1.604	1439904	REC_WORD	6.75	n/a	STEAM	-999	20	[0, 0, 0]	n/a	FR1	0	R1042M
2816.708	1.521	1440706	REC_WORD	8.354	n/a	SMOKE	-999	20	[0, 0, 0]	n/a	FR1	0	R1042M
2818.229	1.742	1441467	REC_WORD	9.875	n/a	PLANE	-999	20	[0, 0, 0]	n/a	FR1	0	R1042M
2819.971	1.624	1442338	REC_WORD	11.617	n/a	CLAY	-999	20	[0, 0, 0]	n/a	FR1	0	R1042M
2821.595	4.581	1443149	REC_WORD	13.241	n/a	BOMB	-999	20	[0, 0, 0]	n/a	FR1	0	R1042M
2826.176	12.19	1445440	REC_WORD	17.822	n/a	CUBE	-999	20	[0, 0, 0]	n/a	FR1	0	R1042M
2838.366	798.398	1451534	REC_END	n/a	n/a	n/a	-999	20	[0, 0, 0]	n/a	FR1	0	R1042M
3636.764	10.0	1850692	COUNTDOWN_START	n/a	n/a	n/a	-999	21	[0, 0, 0]	n/a	FR1	0	R1042M
3636.765	10.427	1850692	TRIAL	n/a	n/a	n/a	-999	21	[0, 0, 0]	n/a	FR1	0	R1042M
3647.192	0.008	1855905	COUNTDOWN_END	n/a	n/a	n/a	-999	21	[0, 0, 0]	n/a	FR1	0	R1042M
3647.2	1.6	1855909	ORIENT	n/a	n/a	n/a	-999	21	[0, 0, 0]	n/a	FR1	0	R1042M
3649.717	1.6	1857168	WORD	n/a	wordpools/wordpool_EN.txt	RICE	1	21	[0, 0, 0]	n/a	FR1	0	R1042M
3652.284	1.6	1858451	WORD	n/a	wordpools/wordpool_EN.txt	SOAP	2	21	[0, 0, 0]	n/a	FR1	0	R1042M
3654.784	1.6	1859701	WORD	n/a	wordpools/wordpool_EN.txt	SEA	3	21	[0, 0, 0]	n/a	FR1	0	R1042M
3657.185	1.6	1860901	WORD	n/a	wordpools/wordpool_EN.txt	PEACH	4	21	[0, 0, 0]	n/a	FR1	0	R1042M
3659.702	1.6	1862160	WORD	n/a	wordpools/wordpool_EN.txt	SKY	5	21	[0, 0, 0]	n/a	FR1	0	R1042M
3662.269	1.6	1863443	WORD	n/a	wordpools/wordpool_EN.txt	FARM	6	21	[0, 0, 0]	n/a	FR1	0	R1042M
3664.703	1.6	1864660	WORD	n/a	wordpools/wordpool_EN.txt	DART	7	21	[0, 0, 0]	n/a	FR1	0	R1042M
3667.304	1.6	1865960	WORD	n/a	wordpools/wordpool_EN.txt	SHEEP	8	21	[0, 0, 0]	n/a	FR1	0	R1042M
3669.871	1.6	1867244	WORD	n/a	wordpools/wordpool_EN.txt	LAND	9	21	[0, 0, 0]	n/a	FR1	0	R1042M
3672.255	1.6	1868435	WORD	n/a	wordpools/wordpool_EN.txt	SHIELD	10	21	[0, 0, 0]	n/a	FR1	0	R1042M
3674.805	1.6	1869710	WORD	n/a	wordpools/wordpool_EN.txt	CHIEF	11	21	[0, 0, 0]	n/a	FR1	0	R1042M
3677.239	1.6	1870927	WORD	n/a	wordpools/wordpool_EN.txt	SHIP	12	21	[0, 0, 0]	n/a	FR1	0	R1042M
3678.856	0.001	1871736	DISTRACT_START	n/a	n/a	n/a	-999	21	[0, 0, 0]	n/a	FR1	0	R1042M
3678.857	0.015	1871736	START	n/a	n/a	n/a	-999	21	[-999, -999, -999]	n/a	FR1	0	R1042M
3678.872	2.868	1871744	PROB	2.837	n/a	n/a	-999	21	[3, 6, 3]	12.0	FR1	0	R1042M
3681.74	2.234	1873177	PROB	2.209	n/a	n/a	-999	21	[4, 8, 2]	14.0	FR1	0	R1042M
3683.974	2.633	1874294	PROB	2.599	n/a	n/a	-999	21	[5, 9, 3]	17.0	FR1	0	R1042M
3686.607	2.101	1875611	PROB	2.078	n/a	n/a	-999	21	[1, 4, 9]	14.0	FR1	0	R1042M
3688.708	1.95	1876661	PROB	1.921	n/a	n/a	-999	21	[6, 4, 3]	13.0	FR1	0	R1042M
3690.658	2.117	1877636	PROB	2.091	n/a	n/a	-999	21	[3, 4, 2]	9.0	FR1	0	R1042M
3692.775	2.201	1878694	PROB	2.174	n/a	n/a	-999	21	[8, 1, 9]	18.0	FR1	0	R1042M
3694.976	3.167	1879795	PROB	3.133	n/a	n/a	-999	21	[3, 1, 4]	8.0	FR1	0	R1042M
3698.143	3.11	1881378	PROB	3.11	n/a	n/a	-999	21	[4, 9, 6]	19.0	FR1	0	R1042M
3701.253	0.007	1882933	STOP	n/a	n/a	n/a	-999	21	[-999, -999, -999]	n/a	FR1	0	R1042M
3701.26	1.15	1882936	DISTRACT_END	n/a	n/a	n/a	-999	21	[0, 0, 0]	n/a	FR1	0	R1042M
3702.41	1.019	1883511	REC_START	n/a	n/a	n/a	-999	21	[0, 0, 0]	n/a	FR1	0	R1042M
3703.429	1.02	1884021	REC_WORD	1.019	n/a	SEA	-999	21	[0, 0, 0]	n/a	FR1	0	R1042M
3704.449	1.305	1884531	REC_WORD	2.039	n/a	SHIP	-999	21	[0, 0, 0]	n/a	FR1	0	R1042M
3705.754	0.65	1885183	REC_WORD	3.344	n/a	DART	-999	21	[0, 0, 0]	n/a	FR1	0	R1042M
3706.404	1.405	1885508	REC_WORD	3.994	n/a	SHIELD	-999	21	[0, 0, 0]	n/a	FR1	0	R1042M
3707.809	1.285	1886211	REC_WORD	5.399	n/a	CHIEF	-999	21	[0, 0, 0]	n/a	FR1	0	R1042M
3709.094	23.326	1886853	REC_WORD	6.684	n/a	SHEEP	-999	21	[0, 0, 0]	n/a	FR1	0	R1042M
3732.42	13.299	1898515	REC_END	n/a	n/a	n/a	-999	21	[0, 0, 0]	n/a	FR1	0	R1042M
3745.719	0.0	1905164	TRIAL	n/a	n/a	n/a	-999	22	[0, 0, 0]	n/a	FR1	0	R1042M
3745.719	10.0	1905164	COUNTDOWN_START	n/a	n/a	n/a	-999	22	[0, 0, 0]	n/a	FR1	0	R1042M
3756.147	0.007	1910377	COUNTDOWN_END	n/a	n/a	n/a	-999	22	[0, 0, 0]	n/a	FR1	0	R1042M
3756.154	1.6	1910381	ORIENT	n/a	n/a	n/a	-999	22	[0, 0, 0]	n/a	FR1	0	R1042M
3758.771	1.6	1911689	WORD	n/a	wordpools/wordpool_EN.txt	YARD	1	22	[0, 0, 0]	n/a	FR1	0	R1042M
3761.172	1.6	1912889	WORD	n/a	wordpools/wordpool_EN.txt	HORN	2	22	[0, 0, 0]	n/a	FR1	0	R1042M
3763.789	1.6	1914198	WORD	n/a	wordpools/wordpool_EN.txt	MOOSE	3	22	[0, 0, 0]	n/a	FR1	0	R1042M
3766.388	1.6	1915497	WORD	n/a	wordpools/wordpool_EN.txt	GUARD	4	22	[0, 0, 0]	n/a	FR1	0	R1042M
3768.957	1.6	1916781	WORD	n/a	wordpools/wordpool_EN.txt	SPOON	5	22	[0, 0, 0]	n/a	FR1	0	R1042M
3771.456	1.6	1918031	WORD	n/a	wordpools/wordpool_EN.txt	PALM	6	22	[0, 0, 0]	n/a	FR1	0	R1042M
3773.924	1.6	1919265	WORD	n/a	wordpools/wordpool_EN.txt	GOAT	7	22	[0, 0, 0]	n/a	FR1	0	R1042M
3776.424	1.6	1920515	WORD	n/a	wordpools/wordpool_EN.txt	SINK	8	22	[0, 0, 0]	n/a	FR1	0	R1042M
3778.909	1.6	1921757	WORD	n/a	wordpools/wordpool_EN.txt	HAT	9	22	[0, 0, 0]	n/a	FR1	0	R1042M
3781.441	1.6	1923023	WORD	n/a	wordpools/wordpool_EN.txt	SMILE	10	22	[0, 0, 0]	n/a	FR1	0	R1042M
3784.06	1.6	1924332	WORD	n/a	wordpools/wordpool_EN.txt	HOLE	11	22	[0, 0, 0]	n/a	FR1	0	R1042M
3786.593	1.6	1925599	WORD	n/a	wordpools/wordpool_EN.txt	LIP	12	22	[0, 0, 0]	n/a	FR1	0	R1042M
3788.21	0.001	1926407	DISTRACT_START	n/a	n/a	n/a	-999	22	[0, 0, 0]	n/a	FR1	0	R1042M
3788.211	0.016	1926407	START	n/a	n/a	n/a	-999	22	[-999, -999, -999]	n/a	FR1	0	R1042M
3788.227	2.199	1926415	PROB	2.169	n/a	n/a	-999	22	[2, 2, 5]	9.0	FR1	0	R1042M
3790.426	2.835	1927515	PROB	2.811	n/a	n/a	-999	22	[5, 7, 5]	17.0	FR1	0	R1042M
3793.261	1.817	1928932	PROB	1.792	n/a	n/a	-999	22	[4, 8, 7]	19.0	FR1	0	R1042M
3795.078	1.717	1929841	PROB	1.687	n/a	n/a	-999	22	[1, 2, 9]	12.0	FR1	0	R1042M
3796.795	1.451	1930699	PROB	1.426	n/a	n/a	-999	22	[2, 6, 4]	12.0	FR1	0	R1042M
3798.246	2.033	1931424	PROB	1.999	n/a	n/a	-999	22	[6, 9, 1]	16.0	FR1	0	R1042M
3800.279	2.534	1932441	PROB	2.502	n/a	n/a	-999	22	[7, 9, 4]	20.0	FR1	0	R1042M
3802.813	2.017	1933708	PROB	1.984	n/a	n/a	-999	22	[1, 2, 5]	8.0	FR1	0	R1042M
3804.83	1.767	1934716	PROB	1.735	n/a	n/a	-999	22	[1, 3, 4]	8.0	FR1	0	R1042M
3806.597	1.831	1935600	PROB	1.831	n/a	n/a	-999	22	[8, 6, 1]	15.0	FR1	0	R1042M
3808.428	0.019	1936515	STOP	n/a	n/a	n/a	-999	22	[-999, -999, -999]	n/a	FR1	0	R1042M
3808.447	1.102	1936524	DISTRACT_END	n/a	n/a	n/a	-999	22	[0, 0, 0]	n/a	FR1	0	R1042M
3809.549	0.956	1937075	REC_START	n/a	n/a	n/a	-999	22	[0, 0, 0]	n/a	FR1	0	R1042M
3810.505	0.977	1937553	REC_WORD	0.956	n/a	YARD	-999	22	[0, 0, 0]	n/a	FR1	0	R1042M
3811.482	1.101	1938042	REC_WORD	1.933	n/a	MOOSE	-999	22	[0, 0, 0]	n/a	FR1	0	R1042M
3812.583	1.043	1938592	REC_WORD	3.034	n/a	HORN	-999	22	[0, 0, 0]	n/a	FR1	0	R1042M
3813.626	1.21	1939114	REC_WORD	4.077	n/a	GUARD	-999	22	[0, 0, 0]	n/a	FR1	0	R1042M
3814.836	1.384	1939719	REC_WORD	5.287	n/a	SINK	-999	22	[0, 0, 0]	n/a	FR1	0	R1042M
3816.22	9.785	1940411	REC_WORD	6.671	n/a	HOLE	-999	22	[0, 0, 0]	n/a	FR1	0	R1042M
3826.005	4.196	1945303	REC_WORD	16.456	n/a	SMILE	-999	22	[0, 0, 0]	n/a	FR1	0	R1042M
3830.201	9.358	1947400	REC_WORD	20.652	n/a	GOAT	-999	22	[0, 0, 0]	n/a	FR1	0	R1042M
3839.559	17.281	1952079	REC_END	n/a	n/a	n/a	-999	22	[0, 0, 0]	n/a	FR1	0	R1042M
3856.84	0.0	1960718	TRIAL	n/a	n/a	n/a	-999	23	[0, 0, 0]	n/a	FR1	0	R1042M
3856.84	10.0	1960718	COUNTDOWN_START	n/a	n/a	n/a	-999	23	[0, 0, 0]	n/a	FR1	0	R1042M
3867.268	0.008	1965932	COUNTDOWN_END	n/a	n/a	n/a	-999	23	[0, 0, 0]	n/a	FR1	0	R1042M
3867.276	1.6	1965936	ORIENT	n/a	n/a	n/a	-999	23	[0, 0, 0]	n/a	FR1	0	R1042M
3869.792	1.6	1967194	WORD	n/a	wordpools/wordpool_EN.txt	PIPE	1	23	[0, 0, 0]	n/a	FR1	0	R1042M
3872.376	1.6	1968486	WORD	n/a	wordpools/wordpool_EN.txt	OWL	2	23	[0, 0, 0]	n/a	FR1	0	R1042M
3874.96	1.6	1969777	WORD	n/a	wordpools/wordpool_EN.txt	PIE	3	23	[0, 0, 0]	n/a	FR1	0	R1042M
3877.494	1.6	1971044	WORD	n/a	wordpools/wordpool_EN.txt	DEER	4	23	[0, 0, 0]	n/a	FR1	0	R1042M
3879.978	1.6	1972286	WORD	n/a	wordpools/wordpool_EN.txt	SPRING	5	23	[0, 0, 0]	n/a	FR1	0	R1042M
3882.428	1.6	1973511	WORD	n/a	wordpools/wordpool_EN.txt	MULE	6	23	[0, 0, 0]	n/a	FR1	0	R1042M
3884.879	1.6	1974736	WORD	n/a	wordpools/wordpool_EN.txt	SLUSH	7	23	[0, 0, 0]	n/a	FR1	0	R1042M
3887.379	1.6	1975986	WORD	n/a	wordpools/wordpool_EN.txt	PIG	8	23	[0, 0, 0]	n/a	FR1	0	R1042M
3889.997	1.6	1977295	WORD	n/a	wordpools/wordpool_EN.txt	STOOL	9	23	[0, 0, 0]	n/a	FR1	0	R1042M
3892.413	1.6	1978503	WORD	n/a	wordpools/wordpool_EN.txt	POOL	10	23	[0, 0, 0]	n/a	FR1	0	R1042M
3894.981	1.6	1979787	WORD	n/a	wordpools/wordpool_EN.txt	WOLF	11	23	[0, 0, 0]	n/a	FR1	0	R1042M
3897.515	1.6	1981054	WORD	n/a	wordpools/wordpool_EN.txt	SWAMP	12	23	[0, 0, 0]	n/a	FR1	0	R1042M
3899.132	0.001	1981862	DISTRACT_START	n/a	n/a	n/a	-999	23	[0, 0, 0]	n/a	FR1	0	R1042M
3899.133	0.015	1981863	START	n/a	n/a	n/a	-999	23	[-999, -999, -999]	n/a	FR1	0	R1042M
3899.148	2.684	1981870	PROB	2.657	n/a	n/a	-999	23	[9, 1, 9]	19.0	FR1	0	R1042M
3901.832	1.951	1983212	PROB	1.917	n/a	n/a	-999	23	[2, 3, 3]	8.0	FR1	0	R1042M
3903.783	2.582	1984187	PROB	2.557	n/a	n/a	-999	23	[3, 4, 6]	13.0	FR1	0	R1042M
3906.365	1.869	1985478	PROB	1.848	n/a	n/a	-999	23	[3, 1, 1]	5.0	FR1	0	R1042M
3908.234	2.883	1986413	PROB	2.859	n/a	n/a	-999	23	[5, 9, 3]	17.0	FR1	0	R1042M
3911.117	3.117	1987854	PROB	3.096	n/a	n/a	-999	23	[6, 7, 4]	17.0	FR1	0	R1042M
3914.234	2.435	1989412	PROB	2.403	n/a	n/a	-999	23	[3, 5, 2]	10.0	FR1	0	R1042M
3916.669	2.832	1990630	PROB	2.832	n/a	n/a	-999	23	[7, 9, 4]	20.0	FR1	0	R1042M
3919.501	0.018	1992046	STOP	n/a	n/a	n/a	-999	23	[-999, -999, -999]	n/a	FR1	0	R1042M
3919.519	1.084	1992055	DISTRACT_END	n/a	n/a	n/a	-999	23	[0, 0, 0]	n/a	FR1	0	R1042M
3920.603	0.849	1992597	REC_START	n/a	n/a	n/a	-999	23	[0, 0, 0]	n/a	FR1	0	R1042M
3921.452	0.987	1993021	REC_WORD	0.849	n/a	OWL	-999	23	[0, 0, 0]	n/a	FR1	0	R1042M
3922.439	0.901	1993515	REC_WORD	1.836	n/a	PIPE	-999	23	[0, 0, 0]	n/a	FR1	0	R1042M
3923.34	1.22	1993965	REC_WORD	2.737	n/a	DEER	-999	23	[0, 0, 0]	n/a	FR1	0	R1042M
3924.56	2.209	1994575	REC_WORD	3.957	n/a	SPRING	-999	23	[0, 0, 0]	n/a	FR1	0	R1042M
3926.769	2.721	1995679	REC_WORD	6.166	n/a	POOL	-999	23	[0, 0, 0]	n/a	FR1	0	R1042M
3929.49	11.274	1997040	REC_WORD	8.887	n/a	SPOOL	-999	23	[0, 0, 0]	n/a	FR1	0	R1042M
3940.764	9.856	2002676	REC_WORD	20.161	n/a	PIE	-999	23	[0, 0, 0]	n/a	FR1	0	R1042M
3950.62	37.096	2007604	REC_END	n/a	n/a	n/a	-999	23	[0, 0, 0]	n/a	FR1	0	R1042M
3987.716	0.0	2026150	TRIAL	n/a	n/a	n/a	-999	24	[0, 0, 0]	n/a	FR1	0	R1042M
3987.716	10.0	2026150	COUNTDOWN_START	n/a	n/a	n/a	-999	24	[0, 0, 0]	n/a	FR1	0	R1042M
3998.144	0.007	2031363	COUNTDOWN_END	n/a	n/a	n/a	-999	24	[0, 0, 0]	n/a	FR1	0	R1042M
3998.151	1.6	2031367	ORIENT	n/a	n/a	n/a	-999	24	[0, 0, 0]	n/a	FR1	0	R1042M
4000.701	1.6	2032641	WORD	n/a	wordpools/wordpool_EN.txt	FOX	1	24	[0, 0, 0]	n/a	FR1	0	R1042M
4003.102	1.6	2033842	WORD	n/a	wordpools/wordpool_EN.txt	LAMB	2	24	[0, 0, 0]	n/a	FR1	0	R1042M
4005.569	1.6	2035075	WORD	n/a	wordpools/wordpool_EN.txt	TAIL	3	24	[0, 0, 0]	n/a	FR1	0	R1042M
4008.17	1.6	2036376	WORD	n/a	wordpools/wordpool_EN.txt	SPEAR	4	24	[0, 0, 0]	n/a	FR1	0	R1042M
4010.687	1.6	2037634	WORD	n/a	wordpools/wordpool_EN.txt	GATE	5	24	[0, 0, 0]	n/a	FR1	0	R1042M
4013.17	1.6	2038875	WORD	n/a	wordpools/wordpool_EN.txt	PEAR	6	24	[0, 0, 0]	n/a	FR1	0	R1042M
4015.638	1.6	2040109	WORD	n/a	wordpools/wordpool_EN.txt	PIT	7	24	[0, 0, 0]	n/a	FR1	0	R1042M
4018.138	1.6	2041359	WORD	n/a	wordpools/wordpool_EN.txt	CLIFF	8	24	[0, 0, 0]	n/a	FR1	0	R1042M
4020.672	1.6	2042626	WORD	n/a	wordpools/wordpool_EN.txt	CALF	9	24	[0, 0, 0]	n/a	FR1	0	R1042M
4023.223	1.6	2043901	WORD	n/a	wordpools/wordpool_EN.txt	ROCK	10	24	[0, 0, 0]	n/a	FR1	0	R1042M
4025.773	1.6	2045176	WORD	n/a	wordpools/wordpool_EN.txt	MOLE	11	24	[0, 0, 0]	n/a	FR1	0	R1042M
4028.356	1.6	2046468	WORD	n/a	wordpools/wordpool_EN.txt	FROG	12	24	[0, 0, 0]	n/a	FR1	0	R1042M
4029.974	0.001	2047276	DISTRACT_START	n/a	n/a	n/a	-999	24	[0, 0, 0]	n/a	FR1	0	R1042M
4029.975	0.016	2047277	START	n/a	n/a	n/a	-999	24	[-999, -999, -999]	n/a	FR1	0	R1042M
4029.991	2.399	2047285	PROB	2.373	n/a	n/a	-999	24	[5, 2, 1]	8.0	FR1	0	R1042M
4032.39	2.235	2048484	PROB	2.199	n/a	n/a	-999	24	[5, 2, 8]	18.0	FR1	0	R1042M
4034.625	2.716	2049602	PROB	2.684	n/a	n/a	-999	24	[6, 7, 5]	18.0	FR1	0	R1042M
4037.341	1.635	2050960	PROB	1.608	n/a	n/a	-999	24	[1, 1, 3]	5.0	FR1	0	R1042M
4038.976	2.267	2051777	PROB	2.237	n/a	n/a	-999	24	[6, 7, 3]	16.0	FR1	0	R1042M
4041.243	1.7	2052910	PROB	1.666	n/a	n/a	-999	24	[1, 3, 9]	13.0	FR1	0	R1042M
4042.943	1.784	2053760	PROB	1.758	n/a	n/a	-999	24	[7, 7, 1]	15.0	FR1	0	R1042M
4044.727	1.933	2054652	PROB	1.902	n/a	n/a	-999	24	[6, 4, 4]	14.0	FR1	0	R1042M
4046.66	2.167	2055619	PROB	2.137	n/a	n/a	-999	24	[2, 9, 3]	14.0	FR1	0	R1042M
4048.827	1.826	2056702	PROB	1.826	n/a	n/a	-999	24	[2, 4, 1]	7.0	FR1	0	R1042M
4050.653	0.008	2057615	STOP	n/a	n/a	n/a	-999	24	[-999, -999, -999]	n/a	FR1	0	R1042M
4050.661	1.168	2057619	DISTRACT_END	n/a	n/a	n/a	-999	24	[0, 0, 0]	n/a	FR1	0	R1042M
4051.829	0.668	2058203	REC_START	n/a	n/a	n/a	-999	24	[0, 0, 0]	n/a	FR1	0	R1042M
4052.497	0.656	2058537	REC_WORD	0.668	n/a	LAMB	-999	24	[0, 0, 0]	n/a	FR1	0	R1042M
4053.153	1.072	2058865	REC_WORD	1.324	n/a	FOX	-999	24	[0, 0, 0]	n/a	FR1	0	R1042M
4054.225	0.838	2059401	REC_WORD	2.396	n/a	TAIL	-999	24	[0, 0, 0]	n/a	FR1	0	R1042M
4055.063	1.942	2059820	REC_WORD	3.234	n/a	SPEAR	-999	24	[0, 0, 0]	n/a	FR1	0	R1042M
4057.005	1.472	2060791	REC_WORD	5.176	n/a	MOLE	-999	24	[0, 0, 0]	n/a	FR1	0	R1042M
4058.477	1.174	2061526	REC_WORD	6.648	n/a	ROCK	-999	24	[0, 0, 0]	n/a	FR1	0	R1042M
4059.651	7.976	2062113	REC_WORD	7.822	n/a	GATE	-999	24	[0, 0, 0]	n/a	FR1	0	R1042M
4067.627	13.985	2066101	REC_WORD	15.798	n/a	PEAR	-999	24	[0, 0, 0]	n/a	FR1	0	R1042M
4081.612	0.23	2073093	REC_WORD	29.783	n/a	PIT	-999	24	[0, 0, 0]	n/a	FR1	0	R1042M
4081.842	40.515	2073208	REC_END	n/a	n/a	n/a	-999	24	[0, 0, 0]	n/a	FR1	0	R1042M
4122.357	10.0	2093463	COUNTDOWN_START	n/a	n/a	n/a	-999	25	[0, 0, 0]	n/a	FR1	0	R1042M
4122.358	10.427	2093464	TRIAL	n/a	n/a	n/a	-999	25	[0, 0, 0]	n/a	FR1	0	R1042M
4132.785	0.009	2098677	COUNTDOWN_END	n/a	n/a	n/a	-999	25	[0, 0, 0]	n/a	FR1	0	R1042M
4132.794	1.6	2098681	ORIENT	n/a	n/a	n/a	-999	25	[0, 0, 0]	n/a	FR1	0	R1042M
4135.211	1.6	2099890	WORD	n/a	wordpools/wordpool_EN.txt	POND	1	25	[0, 0, 0]	n/a	FR1	0	R1042M
4137.661	1.6	2101114	WORD	n/a	wordpools/wordpool_EN.txt	HAND	2	25	[0, 0, 0]	n/a	FR1	0	R1042M
4140.095	1.6	2102331	WORD	n/a	wordpools/wordpool_EN.txt	SPONGE	3	25	[0, 0, 0]	n/a	FR1	0	R1042M
4142.546	1.6	2103557	WORD	n/a	wordpools/wordpool_EN.txt	WAVE	4	25	[0, 0, 0]	n/a	FR1	0	R1042M
4145.113	1.6	2104840	WORD	n/a	wordpools/wordpool_EN.txt	SHELL	5	25	[0, 0, 0]	n/a	FR1	0	R1042M
4147.563	1.6	2106065	WORD	n/a	wordpools/wordpool_EN.txt	EAR	6	25	[0, 0, 0]	n/a	FR1	0	R1042M
4149.997	1.6	2107282	WORD	n/a	wordpools/wordpool_EN.txt	BEACH	7	25	[0, 0, 0]	n/a	FR1	0	R1042M
4152.597	1.6	2108582	WORD	n/a	wordpools/wordpool_EN.txt	CAGE	8	25	[0, 0, 0]	n/a	FR1	0	R1042M
4155.081	1.6	2109824	WORD	n/a	wordpools/wordpool_EN.txt	SNAIL	9	25	[0, 0, 0]	n/a	FR1	0	R1042M
4157.499	1.6	2111032	WORD	n/a	wordpools/wordpool_EN.txt	NEST	10	25	[0, 0, 0]	n/a	FR1	0	R1042M
4159.949	1.6	2112257	WORD	n/a	wordpools/wordpool_EN.txt	BEAK	11	25	[0, 0, 0]	n/a	FR1	0	R1042M
4162.365	1.6	2113465	WORD	n/a	wordpools/wordpool_EN.txt	THREAD	12	25	[0, 0, 0]	n/a	FR1	0	R1042M
4163.983	0.001	2114274	DISTRACT_START	n/a	n/a	n/a	-999	25	[0, 0, 0]	n/a	FR1	0	R1042M
4163.984	0.016	2114275	START	n/a	n/a	n/a	-999	25	[-999, -999, -999]	n/a	FR1	0	R1042M
4164.0	2.6	2114283	PROB	2.573	n/a	n/a	-999	25	[4, 5, 4]	13.0	FR1	0	R1042M
4166.6	2.151	2115582	PROB	2.116	n/a	n/a	-999	25	[9, 7, 3]	19.0	FR1	0	R1042M
4168.751	2.683	2116658	PROB	2.653	n/a	n/a	-999	25	[8, 5, 4]	17.0	FR1	0	R1042M
4171.434	3.101	2117999	PROB	3.067	n/a	n/a	-999	25	[6, 8, 4]	18.0	FR1	0	R1042M
4174.535	1.783	2119550	PROB	1.758	n/a	n/a	-999	25	[1, 3, 3]	7.0	FR1	0	R1042M
4176.318	1.918	2120441	PROB	1.887	n/a	n/a	-999	25	[5, 1, 6]	12.0	FR1	0	R1042M
4178.236	2.017	2121400	PROB	1.993	n/a	n/a	-999	25	[5, 3, 2]	10.0	FR1	0	R1042M
4180.253	1.767	2122408	PROB	1.736	n/a	n/a	-999	25	[7, 3, 9]	19.0	FR1	0	R1042M
4182.02	2.217	2123292	PROB	2.217	n/a	n/a	-999	25	[1, 4, 5]	10.0	FR1	0	R1042M
4184.237	0.017	2124400	STOP	n/a	n/a	n/a	-999	25	[-999, -999, -999]	n/a	FR1	0	R1042M
4184.254	1.099	2124408	DISTRACT_END	n/a	n/a	n/a	-999	25	[0, 0, 0]	n/a	FR1	0	R1042M
4185.353	0.738	2124958	REC_START	n/a	n/a	n/a	-999	25	[0, 0, 0]	n/a	FR1	0	R1042M
4186.091	0.857	2125327	REC_WORD	0.738	n/a	POND	-999	25	[0, 0, 0]	n/a	FR1	0	R1042M
4186.948	1.54	2125755	REC_WORD	1.595	n/a	HAND	-999	25	[0, 0, 0]	n/a	FR1	0	R1042M
4188.488	1.198	2126525	REC_WORD	3.135	n/a	SPONGE	-999	25	[0, 0, 0]	n/a	FR1	0	R1042M
4189.686	0.805	2127124	REC_WORD	4.333	n/a	WAVE	-999	25	[0, 0, 0]	n/a	FR1	0	R1042M
4190.491	1.408	2127527	REC_WORD	5.138	n/a	SNAIL	-999	25	[0, 0, 0]	n/a	FR1	0	R1042M
4191.899	1.647	2128231	REC_WORD	6.546	n/a	SHELL	-999	25	[0, 0, 0]	n/a	FR1	0	R1042M
4193.546	2.441	2129054	REC_WORD	8.193	n/a	EAR	-999	25	[0, 0, 0]	n/a	FR1	0	R1042M
4195.987	11.656	2130274	REC_WORD	10.634	n/a	CAGE	-999	25	[0, 0, 0]	n/a	FR1	0	R1042M
4207.643	7.723	2136102	REC_WORD	22.29	n/a	BEACH	-999	25	[0, 0, 0]	n/a	FR1	0	R1042M
4215.366	50.854	2139963	REC_END	n/a	n/a	n/a	-999	25	[0, 0, 0]	n/a	FR1	0	R1042M
4266.22	0.0	2165387	SESS_END	n/a	n/a	n/a	-999	25	[0, 0, 0]	n/a	FR1	0	R1042M
