onset	duration	sample	trial_type	response_time	stim_file	item_name	serialpos	list	test	answer	experiment	session	subject
0.0	92.629	113226	SESS_START	n/a	n/a	n/a	-999	-999	[0, 0, 0]	n/a	FR1	2	R1066P
92.629	10.0	159538	COUNTDOWN_START	n/a	n/a	n/a	-999	-999	[0, 0, 0]	n/a	FR1	2	R1066P
103.057	3.657	164752	COUNTDOWN_END	n/a	n/a	n/a	-999	-999	[0, 0, 0]	n/a	FR1	2	R1066P
106.714	1.6	166580	PRACTICE_WORD	n/a	n/a	WAGON	1	-1	[0, 0, 0]	n/a	FR1	2	R1066P
109.214	1.6	167830	PRACTICE_WORD	n/a	n/a	CAMEL	2	-1	[0, 0, 0]	n/a	FR1	2	R1066P
111.649	1.6	169048	PRACTICE_WORD	n/a	n/a	IRON	3	-1	[0, 0, 0]	n/a	FR1	2	R1066P
114.248	1.6	170347	PRACTICE_WORD	n/a	n/a	TONGUE	4	-1	[0, 0, 0]	n/a	FR1	2	R1066P
116.683	1.6	171565	PRACTICE_WORD	n/a	n/a	BEAM	5	-1	[0, 0, 0]	n/a	FR1	2	R1066P
119.066	1.6	172756	PRACTICE_WORD	n/a	n/a	COTTON	6	-1	[0, 0, 0]	n/a	FR1	2	R1066P
121.684	1.6	174065	PRACTICE_WORD	n/a	n/a	FLOOD	7	-1	[0, 0, 0]	n/a	FR1	2	R1066P
124.217	1.6	175331	PRACTICE_WORD	n/a	n/a	RHINO	8	-1	[0, 0, 0]	n/a	FR1	2	R1066P
126.801	1.6	176623	PRACTICE_WORD	n/a	n/a	WATCH	9	-1	[0, 0, 0]	n/a	FR1	2	R1066P
129.268	1.6	177857	PRACTICE_WORD	n/a	n/a	ATTIC	10	-1	[0, 0, 0]	n/a	FR1	2	R1066P
131.835	1.6	179140	PRACTICE_WORD	n/a	n/a	RING	11	-1	[0, 0, 0]	n/a	FR1	2	R1066P
134.235	1.6	180340	PRACTICE_WORD	n/a	n/a	CHEST	12	-1	[0, 0, 0]	n/a	FR1	2	R1066P
135.836	0.0	181141	PRACTICE_DISTRACT_START	n/a	n/a	n/a	-999	-1	[0, 0, 0]	n/a	FR1	2	R1066P
135.836	0.016	181141	START	n/a	n/a	n/a	-999	-1	[-999, -999, -999]	n/a	FR1	2	R1066P
135.852	3.134	181149	PROB	3.099	n/a	n/a	-999	-1	[9, 4, 2]	15.0	FR1	2	R1066P
138.986	2.801	182715	PROB	2.774	n/a	n/a	-999	-1	[5, 4, 8]	17.0	FR1	2	R1066P
141.787	3.201	184116	PROB	3.172	n/a	n/a	-999	-1	[5, 3, 5]	13.0	FR1	2	R1066P
144.988	2.067	185716	PROB	2.035	n/a	n/a	-999	-1	[3, 2, 4]	9.0	FR1	2	R1066P
147.055	2.35	186750	PROB	2.321	n/a	n/a	-999	-1	[3, 9, 2]	14.0	FR1	2	R1066P
149.405	1.967	187925	PROB	1.939	n/a	n/a	-999	-1	[5, 5, 3]	13.0	FR1	2	R1066P
151.372	2.534	188908	PROB	2.5	n/a	n/a	-999	-1	[5, 4, 7]	16.0	FR1	2	R1066P
153.906	3.181	190175	PROB	3.181	n/a	n/a	-999	-1	[6, 2, 3]	11.0	FR1	2	R1066P
157.087	0.02	191765	STOP	n/a	n/a	n/a	-999	-1	[-999, -999, -999]	n/a	FR1	2	R1066P
157.107	0.536	191775	PRACTICE_DISTRACT_END	n/a	n/a	n/a	-999	-1	[0, 0, 0]	n/a	FR1	2	R1066P
157.643	30.514	192043	PRACTICE_REC_START	n/a	n/a	n/a	-999	-1	[0, 0, 0]	n/a	FR1	2	R1066P
188.157	28.194	207300	PRACTICE_REC_END	n/a	n/a	n/a	-999	-1	[0, 0, 0]	n/a	FR1	2	R1066P
216.351	10.0	221396	COUNTDOWN_START	n/a	n/a	n/a	-999	1	[0, 0, 0]	n/a	FR1	2	R1066P
216.351	10.428	221396	TRIAL	n/a	n/a	n/a	-999	1	[0, 0, 0]	n/a	FR1	2	R1066P
226.779	0.024	226610	COUNTDOWN_END	n/a	n/a	n/a	-999	1	[0, 0, 0]	n/a	FR1	2	R1066P
226.803	1.6	226622	ORIENT	n/a	n/a	n/a	-999	1	[0, 0, 0]	n/a	FR1	2	R1066P
229.303	1.6	227872	WORD	n/a	wordpools/wordpool_EN.txt	TENT	1	1	[0, 0, 0]	n/a	FR1	2	R1066P
231.721	1.6	229081	WORD	n/a	wordpools/wordpool_EN.txt	GUARD	2	1	[0, 0, 0]	n/a	FR1	2	R1066P
234.204	1.6	230322	WORD	n/a	wordpools/wordpool_EN.txt	JEEP	3	1	[0, 0, 0]	n/a	FR1	2	R1066P
236.771	1.6	231605	WORD	n/a	wordpools/wordpool_EN.txt	ARK	4	1	[0, 0, 0]	n/a	FR1	2	R1066P
239.239	1.6	232839	WORD	n/a	wordpools/wordpool_EN.txt	LIP	5	1	[0, 0, 0]	n/a	FR1	2	R1066P
241.623	1.6	234031	WORD	n/a	wordpools/wordpool_EN.txt	PEN	6	1	[0, 0, 0]	n/a	FR1	2	R1066P
244.056	1.6	235248	WORD	n/a	wordpools/wordpool_EN.txt	CHEEK	7	1	[0, 0, 0]	n/a	FR1	2	R1066P
246.523	1.6	236481	WORD	n/a	wordpools/wordpool_EN.txt	BADGE	8	1	[0, 0, 0]	n/a	FR1	2	R1066P
249.14	1.6	237790	WORD	n/a	wordpools/wordpool_EN.txt	HAT	9	1	[0, 0, 0]	n/a	FR1	2	R1066P
251.758	1.6	239098	WORD	n/a	wordpools/wordpool_EN.txt	MUD	10	1	[0, 0, 0]	n/a	FR1	2	R1066P
254.141	1.6	240290	WORD	n/a	wordpools/wordpool_EN.txt	GEESE	11	1	[0, 0, 0]	n/a	FR1	2	R1066P
256.692	1.6	241565	WORD	n/a	wordpools/wordpool_EN.txt	HAND	12	1	[0, 0, 0]	n/a	FR1	2	R1066P
258.309	0.001	242374	DISTRACT_START	n/a	n/a	n/a	-999	1	[0, 0, 0]	n/a	FR1	2	R1066P
258.31	0.015	242374	START	n/a	n/a	n/a	-999	1	[-999, -999, -999]	n/a	FR1	2	R1066P
258.325	7.169	242382	PROB	7.139	n/a	n/a	-999	1	[5, 7, 2]	14.0	FR1	2	R1066P
265.494	2.65	245966	PROB	2.618	n/a	n/a	-999	1	[1, 3, 8]	12.0	FR1	2	R1066P
268.144	2.984	247291	PROB	2.952	n/a	n/a	-999	1	[2, 9, 6]	19.0	FR1	2	R1066P
271.128	2.634	248783	PROB	2.607	n/a	n/a	-999	1	[5, 5, 8]	18.0	FR1	2	R1066P
273.762	2.4	250100	PROB	2.366	n/a	n/a	-999	1	[2, 1, 5]	8.0	FR1	2	R1066P
276.162	3.487	251300	PROB	3.487	n/a	n/a	-999	1	[4, 9, 2]	15.0	FR1	2	R1066P
279.649	0.015	253043	STOP	n/a	n/a	n/a	-999	1	[-999, -999, -999]	n/a	FR1	2	R1066P
279.664	1.133	253051	DISTRACT_END	n/a	n/a	n/a	-999	1	[0, 0, 0]	n/a	FR1	2	R1066P
280.797	0.881	253617	REC_START	n/a	n/a	n/a	-999	1	[0, 0, 0]	n/a	FR1	2	R1066P
281.678	0.536	254058	REC_WORD_VV	0.881	n/a	<>	-999	1	[0, 0, 0]	n/a	FR1	2	R1066P
282.214	1.078	254326	REC_WORD	1.417	n/a	TENT	1	1	[0, 0, 0]	n/a	FR1	2	R1066P
283.292	1.082	254865	REC_WORD	2.495	n/a	GUARD	2	1	[0, 0, 0]	n/a	FR1	2	R1066P
284.374	2.956	255406	REC_WORD	3.577	n/a	BADGE	8	1	[0, 0, 0]	n/a	FR1	2	R1066P
287.33	3.31	256884	REC_WORD	6.533	n/a	TONGUE	-999	1	[0, 0, 0]	n/a	FR1	2	R1066P
290.64	1.873	258538	REC_WORD	9.843	n/a	ARK	4	1	[0, 0, 0]	n/a	FR1	2	R1066P
292.513	5.939	259475	REC_WORD	11.716	n/a	FLOOD	-999	1	[0, 0, 0]	n/a	FR1	2	R1066P
298.452	5.36	262444	REC_WORD	17.655	n/a	BADGE	8	1	[0, 0, 0]	n/a	FR1	2	R1066P
303.812	6.995	265124	REC_WORD	23.015	n/a	LIP	5	1	[0, 0, 0]	n/a	FR1	2	R1066P
310.807	5.596	268621	REC_END	n/a	n/a	n/a	-999	1	[0, 0, 0]	n/a	FR1	2	R1066P
316.403	0.0	271419	TRIAL	n/a	n/a	n/a	-999	2	[0, 0, 0]	n/a	FR1	2	R1066P
316.403	10.0	271419	COUNTDOWN_START	n/a	n/a	n/a	-999	2	[0, 0, 0]	n/a	FR1	2	R1066P
326.831	0.007	276633	COUNTDOWN_END	n/a	n/a	n/a	-999	2	[0, 0, 0]	n/a	FR1	2	R1066P
326.838	1.6	276637	ORIENT	n/a	n/a	n/a	-999	2	[0, 0, 0]	n/a	FR1	2	R1066P
329.289	1.6	277862	WORD	n/a	wordpools/wordpool_EN.txt	SHRIMP	1	2	[0, 0, 0]	n/a	FR1	2	R1066P
331.756	1.6	279095	WORD	n/a	wordpools/wordpool_EN.txt	SALT	2	2	[0, 0, 0]	n/a	FR1	2	R1066P
334.19	1.6	280312	WORD	n/a	wordpools/wordpool_EN.txt	STRING	3	2	[0, 0, 0]	n/a	FR1	2	R1066P
336.59	1.6	281512	WORD	n/a	wordpools/wordpool_EN.txt	DIME	4	2	[0, 0, 0]	n/a	FR1	2	R1066P
339.19	1.6	282812	WORD	n/a	wordpools/wordpool_EN.txt	SPOON	5	2	[0, 0, 0]	n/a	FR1	2	R1066P
341.758	1.6	284096	WORD	n/a	wordpools/wordpool_EN.txt	SPONGE	6	2	[0, 0, 0]	n/a	FR1	2	R1066P
344.292	1.6	285363	WORD	n/a	wordpools/wordpool_EN.txt	ZOO	7	2	[0, 0, 0]	n/a	FR1	2	R1066P
346.909	1.6	286672	WORD	n/a	wordpools/wordpool_EN.txt	CLOWN	8	2	[0, 0, 0]	n/a	FR1	2	R1066P
349.476	1.6	287955	WORD	n/a	wordpools/wordpool_EN.txt	PASTE	9	2	[0, 0, 0]	n/a	FR1	2	R1066P
351.91	1.6	289172	WORD	n/a	wordpools/wordpool_EN.txt	TOOL	10	2	[0, 0, 0]	n/a	FR1	2	R1066P
354.443	1.6	290438	WORD	n/a	wordpools/wordpool_EN.txt	TEETH	11	2	[0, 0, 0]	n/a	FR1	2	R1066P
356.944	1.6	291689	WORD	n/a	wordpools/wordpool_EN.txt	ELF	12	2	[0, 0, 0]	n/a	FR1	2	R1066P
358.561	0.001	292497	DISTRACT_START	n/a	n/a	n/a	-999	2	[0, 0, 0]	n/a	FR1	2	R1066P
358.562	0.016	292498	START	n/a	n/a	n/a	-999	2	[-999, -999, -999]	n/a	FR1	2	R1066P
358.578	3.035	292506	PROB	2.997	n/a	n/a	-999	2	[5, 2, 1]	8.0	FR1	2	R1066P
361.613	2.632	294023	PROB	2.602	n/a	n/a	-999	2	[3, 7, 6]	16.0	FR1	2	R1066P
364.245	1.884	295339	PROB	1.85	n/a	n/a	-999	2	[5, 5, 8]	18.0	FR1	2	R1066P
366.129	3.267	296281	PROB	3.246	n/a	n/a	-999	2	[3, 5, 2]	10.0	FR1	2	R1066P
369.396	5.535	297914	PROB	5.5	n/a	n/a	-999	2	[3, 6, 8]	17.0	FR1	2	R1066P
374.931	2.767	300682	PROB	2.741	n/a	n/a	-999	2	[8, 4, 8]	2.0	FR1	2	R1066P
377.698	3.109	302065	PROB	3.109	n/a	n/a	-999	2	[3, 9, 1]	13.0	FR1	2	R1066P
380.807	0.008	303620	STOP	n/a	n/a	n/a	-999	2	[-999, -999, -999]	n/a	FR1	2	R1066P
380.815	1.068	303624	DISTRACT_END	n/a	n/a	n/a	-999	2	[0, 0, 0]	n/a	FR1	2	R1066P
381.883	0.807	304158	REC_START	n/a	n/a	n/a	-999	2	[0, 0, 0]	n/a	FR1	2	R1066P
382.69	0.623	304561	REC_WORD	0.807	n/a	SHRIMP	1	2	[0, 0, 0]	n/a	FR1	2	R1066P
383.313	2.609	304873	REC_WORD	1.43	n/a	SALT	2	2	[0, 0, 0]	n/a	FR1	2	R1066P
385.922	12.084	306177	REC_WORD	4.039	n/a	ZOO	7	2	[0, 0, 0]	n/a	FR1	2	R1066P
398.006	1.0	312219	REC_WORD_VV	16.123	n/a	<>	-999	2	[0, 0, 0]	n/a	FR1	2	R1066P
399.006	7.576	312719	REC_WORD_VV	17.123	n/a	<>	-999	2	[0, 0, 0]	n/a	FR1	2	R1066P
406.582	0.728	316506	REC_WORD	24.699	n/a	SHRIMP	1	2	[0, 0, 0]	n/a	FR1	2	R1066P
407.31	4.592	316870	REC_WORD	25.427	n/a	SALT	2	2	[0, 0, 0]	n/a	FR1	2	R1066P
411.902	2.369	319166	REC_END	n/a	n/a	n/a	-999	2	[0, 0, 0]	n/a	FR1	2	R1066P
414.271	10.0	320351	COUNTDOWN_START	n/a	n/a	n/a	-999	3	[0, 0, 0]	n/a	FR1	2	R1066P
414.272	10.427	320351	TRIAL	n/a	n/a	n/a	-999	3	[0, 0, 0]	n/a	FR1	2	R1066P
424.699	0.008	325564	COUNTDOWN_END	n/a	n/a	n/a	-999	3	[0, 0, 0]	n/a	FR1	2	R1066P
424.707	1.6	325568	ORIENT	n/a	n/a	n/a	-999	3	[0, 0, 0]	n/a	FR1	2	R1066P
427.324	1.6	326877	WORD	n/a	wordpools/wordpool_EN.txt	BRICK	1	3	[0, 0, 0]	n/a	FR1	2	R1066P
429.774	1.6	328102	WORD	n/a	wordpools/wordpool_EN.txt	MAIL	2	3	[0, 0, 0]	n/a	FR1	2	R1066P
432.375	1.6	329402	WORD	n/a	wordpools/wordpool_EN.txt	FILM	3	3	[0, 0, 0]	n/a	FR1	2	R1066P
434.759	1.6	330594	WORD	n/a	wordpools/wordpool_EN.txt	JUDGE	4	3	[0, 0, 0]	n/a	FR1	2	R1066P
437.242	1.6	331836	WORD	n/a	wordpools/wordpool_EN.txt	DOOR	5	3	[0, 0, 0]	n/a	FR1	2	R1066P
439.743	1.6	333086	WORD	n/a	wordpools/wordpool_EN.txt	CAR	6	3	[0, 0, 0]	n/a	FR1	2	R1066P
442.21	1.6	334320	WORD	n/a	wordpools/wordpool_EN.txt	BOOK	7	3	[0, 0, 0]	n/a	FR1	2	R1066P
444.76	1.6	335594	WORD	n/a	wordpools/wordpool_EN.txt	KITE	8	3	[0, 0, 0]	n/a	FR1	2	R1066P
447.144	1.6	336786	WORD	n/a	wordpools/wordpool_EN.txt	INK	9	3	[0, 0, 0]	n/a	FR1	2	R1066P
449.578	1.6	338003	WORD	n/a	wordpools/wordpool_EN.txt	SKI	10	3	[0, 0, 0]	n/a	FR1	2	R1066P
452.178	1.6	339303	WORD	n/a	wordpools/wordpool_EN.txt	BANK	11	3	[0, 0, 0]	n/a	FR1	2	R1066P
454.762	1.6	340595	WORD	n/a	wordpools/wordpool_EN.txt	JAIL	12	3	[0, 0, 0]	n/a	FR1	2	R1066P
456.379	0.001	341404	DISTRACT_START	n/a	n/a	n/a	-999	3	[0, 0, 0]	n/a	FR1	2	R1066P
456.38	0.016	341404	START	n/a	n/a	n/a	-999	3	[-999, -999, -999]	n/a	FR1	2	R1066P
456.396	3.601	341412	PROB	3.571	n/a	n/a	-999	3	[4, 5, 1]	10.0	FR1	2	R1066P
459.997	7.118	343213	PROB	7.091	n/a	n/a	-999	3	[6, 3, 8]	17.0	FR1	2	R1066P
467.115	2.1	346771	PROB	2.076	n/a	n/a	-999	3	[2, 7, 3]	12.0	FR1	2	R1066P
469.215	3.334	347821	PROB	3.305	n/a	n/a	-999	3	[6, 3, 4]	13.0	FR1	2	R1066P
472.549	4.163	349488	PROB	4.163	n/a	n/a	-999	3	[1, 7, 8]	18.0	FR1	2	R1066P
476.712	0.004	351570	STOP	n/a	n/a	n/a	-999	3	[-999, -999, -999]	n/a	FR1	2	R1066P
476.716	1.139	351572	DISTRACT_END	n/a	n/a	n/a	-999	3	[0, 0, 0]	n/a	FR1	2	R1066P
477.855	0.48	352141	REC_START	n/a	n/a	n/a	-999	3	[0, 0, 0]	n/a	FR1	2	R1066P
478.335	0.562	352381	REC_WORD	0.48	n/a	BRICK	1	3	[0, 0, 0]	n/a	FR1	2	R1066P
478.897	2.15	352662	REC_WORD	1.042	n/a	MAIL	2	3	[0, 0, 0]	n/a	FR1	2	R1066P
481.047	18.293	353737	REC_WORD	3.192	n/a	SKULL	-999	3	[0, 0, 0]	n/a	FR1	2	R1066P
499.34	1.0	362883	REC_WORD_VV	21.485	n/a	<>	-999	3	[0, 0, 0]	n/a	FR1	2	R1066P
500.34	7.521	363383	REC_WORD_VV	22.485	n/a	<>	-999	3	[0, 0, 0]	n/a	FR1	2	R1066P
507.861	9.146	367143	REC_END	n/a	n/a	n/a	-999	3	[0, 0, 0]	n/a	FR1	2	R1066P
517.007	10.0	371716	COUNTDOWN_START	n/a	n/a	n/a	-999	4	[0, 0, 0]	n/a	FR1	2	R1066P
517.008	10.427	371717	TRIAL	n/a	n/a	n/a	-999	4	[0, 0, 0]	n/a	FR1	2	R1066P
527.435	0.008	376930	COUNTDOWN_END	n/a	n/a	n/a	-999	4	[0, 0, 0]	n/a	FR1	2	R1066P
527.443	1.6	376934	ORIENT	n/a	n/a	n/a	-999	4	[0, 0, 0]	n/a	FR1	2	R1066P
530.06	1.6	378242	WORD	n/a	wordpools/wordpool_EN.txt	LAMB	1	4	[0, 0, 0]	n/a	FR1	2	R1066P
532.644	1.6	379534	WORD	n/a	wordpools/wordpool_EN.txt	DEER	2	4	[0, 0, 0]	n/a	FR1	2	R1066P
535.261	1.6	380843	WORD	n/a	wordpools/wordpool_EN.txt	WAND	3	4	[0, 0, 0]	n/a	FR1	2	R1066P
537.861	1.6	382142	WORD	n/a	wordpools/wordpool_EN.txt	WOLF	4	4	[0, 0, 0]	n/a	FR1	2	R1066P
540.245	1.6	383334	WORD	n/a	wordpools/wordpool_EN.txt	RAKE	5	4	[0, 0, 0]	n/a	FR1	2	R1066P
542.795	1.6	384609	WORD	n/a	wordpools/wordpool_EN.txt	SNOW	6	4	[0, 0, 0]	n/a	FR1	2	R1066P
545.296	1.6	385860	WORD	n/a	wordpools/wordpool_EN.txt	ROAD	7	4	[0, 0, 0]	n/a	FR1	2	R1066P
547.896	1.6	387160	WORD	n/a	wordpools/wordpool_EN.txt	STONE	8	4	[0, 0, 0]	n/a	FR1	2	R1066P
550.297	1.6	388360	WORD	n/a	wordpools/wordpool_EN.txt	FORK	9	4	[0, 0, 0]	n/a	FR1	2	R1066P
552.881	1.6	389652	WORD	n/a	wordpools/wordpool_EN.txt	CRANE	10	4	[0, 0, 0]	n/a	FR1	2	R1066P
555.381	1.6	390902	WORD	n/a	wordpools/wordpool_EN.txt	BEAR	11	4	[0, 0, 0]	n/a	FR1	2	R1066P
558.015	1.6	392219	WORD	n/a	wordpools/wordpool_EN.txt	MOLE	12	4	[0, 0, 0]	n/a	FR1	2	R1066P
559.633	0.001	393028	DISTRACT_START	n/a	n/a	n/a	-999	4	[0, 0, 0]	n/a	FR1	2	R1066P
559.634	0.016	393028	START	n/a	n/a	n/a	-999	4	[-999, -999, -999]	n/a	FR1	2	R1066P
559.65	5.433	393036	PROB	5.397	n/a	n/a	-999	4	[9, 8, 5]	22.0	FR1	2	R1066P
565.083	4.351	395753	PROB	4.324	n/a	n/a	-999	4	[3, 8, 3]	12.0	FR1	2	R1066P
569.434	2.55	397928	PROB	2.518	n/a	n/a	-999	4	[4, 4, 1]	9.0	FR1	2	R1066P
571.984	2.817	399203	PROB	2.792	n/a	n/a	-999	4	[7, 2, 5]	14.0	FR1	2	R1066P
574.801	5.358	400612	PROB	5.358	n/a	n/a	-999	4	[5, 1, 7]	13.0	FR1	2	R1066P
580.159	0.01	403290	STOP	n/a	n/a	n/a	-999	4	[-999, -999, -999]	n/a	FR1	2	R1066P
580.169	1.084	403295	DISTRACT_END	n/a	n/a	n/a	-999	4	[0, 0, 0]	n/a	FR1	2	R1066P
581.253	6.05	403837	REC_START	n/a	n/a	n/a	-999	4	[0, 0, 0]	n/a	FR1	2	R1066P
587.303	0.491	406862	REC_WORD	6.05	n/a	LAMB	1	4	[0, 0, 0]	n/a	FR1	2	R1066P
587.794	1.832	407108	REC_WORD	6.541	n/a	MOLE	12	4	[0, 0, 0]	n/a	FR1	2	R1066P
589.626	21.641	408024	REC_WORD	8.373	n/a	SNOW	6	4	[0, 0, 0]	n/a	FR1	2	R1066P
611.267	51.634	418844	REC_END	n/a	n/a	n/a	-999	4	[0, 0, 0]	n/a	FR1	2	R1066P
662.901	0.0	444659	TRIAL	n/a	n/a	n/a	-999	5	[0, 0, 0]	n/a	FR1	2	R1066P
662.901	10.0	444659	COUNTDOWN_START	n/a	n/a	n/a	-999	5	[0, 0, 0]	n/a	FR1	2	R1066P
673.329	0.008	449873	COUNTDOWN_END	n/a	n/a	n/a	-999	5	[0, 0, 0]	n/a	FR1	2	R1066P
673.337	1.6	449877	ORIENT	n/a	n/a	n/a	-999	5	[0, 0, 0]	n/a	FR1	2	R1066P
675.854	1.6	451135	WORD	n/a	wordpools/wordpool_EN.txt	YARD	1	5	[0, 0, 0]	n/a	FR1	2	R1066P
678.321	1.6	452369	WORD	n/a	wordpools/wordpool_EN.txt	HOLE	2	5	[0, 0, 0]	n/a	FR1	2	R1066P
680.905	1.6	453661	WORD	n/a	wordpools/wordpool_EN.txt	BUSH	3	5	[0, 0, 0]	n/a	FR1	2	R1066P
683.388	1.6	454902	WORD	n/a	wordpools/wordpool_EN.txt	OWL	4	5	[0, 0, 0]	n/a	FR1	2	R1066P
686.006	1.6	456211	WORD	n/a	wordpools/wordpool_EN.txt	BRUSH	5	5	[0, 0, 0]	n/a	FR1	2	R1066P
688.624	1.6	457520	WORD	n/a	wordpools/wordpool_EN.txt	PIPE	6	5	[0, 0, 0]	n/a	FR1	2	R1066P
691.123	1.6	458769	WORD	n/a	wordpools/wordpool_EN.txt	CLIFF	7	5	[0, 0, 0]	n/a	FR1	2	R1066P
693.707	1.6	460061	WORD	n/a	wordpools/wordpool_EN.txt	MULE	8	5	[0, 0, 0]	n/a	FR1	2	R1066P
696.174	1.6	461295	WORD	n/a	wordpools/wordpool_EN.txt	SPEAR	9	5	[0, 0, 0]	n/a	FR1	2	R1066P
698.626	1.6	462521	WORD	n/a	wordpools/wordpool_EN.txt	BAND	10	5	[0, 0, 0]	n/a	FR1	2	R1066P
701.042	1.6	463729	WORD	n/a	wordpools/wordpool_EN.txt	FROG	11	5	[0, 0, 0]	n/a	FR1	2	R1066P
703.66	1.6	465038	WORD	n/a	wordpools/wordpool_EN.txt	ROOF	12	5	[0, 0, 0]	n/a	FR1	2	R1066P
705.276	0.001	465846	DISTRACT_START	n/a	n/a	n/a	-999	5	[0, 0, 0]	n/a	FR1	2	R1066P
705.277	0.016	465846	START	n/a	n/a	n/a	-999	5	[-999, -999, -999]	n/a	FR1	2	R1066P
705.293	2.867	465854	PROB	2.843	n/a	n/a	-999	5	[1, 2, 9]	12.0	FR1	2	R1066P
708.16	2.083	467288	PROB	2.055	n/a	n/a	-999	5	[8, 2, 6]	16.0	FR1	2	R1066P
710.243	2.634	468329	PROB	2.612	n/a	n/a	-999	5	[9, 2, 8]	19.0	FR1	2	R1066P
712.877	4.468	469646	PROB	4.442	n/a	n/a	-999	5	[5, 2, 4]	11.0	FR1	2	R1066P
717.345	2.484	471880	PROB	2.455	n/a	n/a	-999	5	[4, 3, 1]	8.0	FR1	2	R1066P
719.829	7.163	473122	PROB	7.163	n/a	n/a	-999	5	[9, 8, 7]	24.0	FR1	2	R1066P
726.992	0.004	476703	STOP	n/a	n/a	n/a	-999	5	[-999, -999, -999]	n/a	FR1	2	R1066P
726.996	1.102	476705	DISTRACT_END	n/a	n/a	n/a	-999	5	[0, 0, 0]	n/a	FR1	2	R1066P
728.098	0.863	477256	REC_START	n/a	n/a	n/a	-999	5	[0, 0, 0]	n/a	FR1	2	R1066P
728.961	0.568	477687	REC_WORD_VV	0.863	n/a	<>	-999	5	[0, 0, 0]	n/a	FR1	2	R1066P
729.529	0.536	477971	REC_WORD	1.431	n/a	YARD	1	5	[0, 0, 0]	n/a	FR1	2	R1066P
730.065	0.872	478239	REC_WORD	1.967	n/a	HOLE	2	5	[0, 0, 0]	n/a	FR1	2	R1066P
730.937	2.046	478675	REC_WORD	2.839	n/a	BUSH	3	5	[0, 0, 0]	n/a	FR1	2	R1066P
732.983	3.404	479698	REC_WORD	4.885	n/a	WAGON	-999	5	[0, 0, 0]	n/a	FR1	2	R1066P
736.387	1.493	481400	REC_WORD_VV	8.289	n/a	<>	-999	5	[0, 0, 0]	n/a	FR1	2	R1066P
737.88	12.064	482147	REC_WORD	9.782	n/a	MOLE	-999	5	[0, 0, 0]	n/a	FR1	2	R1066P
749.944	0.373	488178	REC_WORD_VV	21.846	n/a	<>	-999	5	[0, 0, 0]	n/a	FR1	2	R1066P
750.317	7.791	488365	REC_WORD	22.219	n/a	ROOF	12	5	[0, 0, 0]	n/a	FR1	2	R1066P
758.108	66.324	492260	REC_END	n/a	n/a	n/a	-999	5	[0, 0, 0]	n/a	FR1	2	R1066P
824.432	0.0	525420	TRIAL	n/a	n/a	n/a	-999	6	[0, 0, 0]	n/a	FR1	2	R1066P
824.432	10.0	525420	COUNTDOWN_START	n/a	n/a	n/a	-999	6	[0, 0, 0]	n/a	FR1	2	R1066P
834.86	0.007	530634	COUNTDOWN_END	n/a	n/a	n/a	-999	6	[0, 0, 0]	n/a	FR1	2	R1066P
834.867	1.6	530638	ORIENT	n/a	n/a	n/a	-999	6	[0, 0, 0]	n/a	FR1	2	R1066P
837.3	1.6	531854	WORD	n/a	wordpools/wordpool_EN.txt	SQUARE	1	6	[0, 0, 0]	n/a	FR1	2	R1066P
839.901	1.6	533155	WORD	n/a	wordpools/wordpool_EN.txt	CART	2	6	[0, 0, 0]	n/a	FR1	2	R1066P
842.402	1.6	534405	WORD	n/a	wordpools/wordpool_EN.txt	BOWL	3	6	[0, 0, 0]	n/a	FR1	2	R1066P
844.819	1.6	535613	WORD	n/a	wordpools/wordpool_EN.txt	BOY	4	6	[0, 0, 0]	n/a	FR1	2	R1066P
847.252	1.6	536830	WORD	n/a	wordpools/wordpool_EN.txt	WOOD	5	6	[0, 0, 0]	n/a	FR1	2	R1066P
849.671	1.6	538039	WORD	n/a	wordpools/wordpool_EN.txt	BOAT	6	6	[0, 0, 0]	n/a	FR1	2	R1066P
852.237	1.6	539322	WORD	n/a	wordpools/wordpool_EN.txt	CROWN	7	6	[0, 0, 0]	n/a	FR1	2	R1066P
854.638	1.6	540523	WORD	n/a	wordpools/wordpool_EN.txt	CLAY	8	6	[0, 0, 0]	n/a	FR1	2	R1066P
857.121	1.6	541764	WORD	n/a	wordpools/wordpool_EN.txt	CANE	9	6	[0, 0, 0]	n/a	FR1	2	R1066P
859.521	1.6	542964	WORD	n/a	wordpools/wordpool_EN.txt	SLEEVE	10	6	[0, 0, 0]	n/a	FR1	2	R1066P
862.039	1.6	544223	WORD	n/a	wordpools/wordpool_EN.txt	SWORD	11	6	[0, 0, 0]	n/a	FR1	2	R1066P
864.522	1.6	545464	WORD	n/a	wordpools/wordpool_EN.txt	CUBE	12	6	[0, 0, 0]	n/a	FR1	2	R1066P
866.139	0.001	546273	DISTRACT_START	n/a	n/a	n/a	-999	6	[0, 0, 0]	n/a	FR1	2	R1066P
866.14	0.016	546273	START	n/a	n/a	n/a	-999	6	[-999, -999, -999]	n/a	FR1	2	R1066P
866.156	3.501	546281	PROB	3.468	n/a	n/a	-999	6	[8, 3, 7]	17.0	FR1	2	R1066P
869.657	3.184	548032	PROB	3.15	n/a	n/a	-999	6	[3, 7, 5]	15.0	FR1	2	R1066P
872.841	2.133	549624	PROB	2.102	n/a	n/a	-999	6	[8, 1, 3]	12.0	FR1	2	R1066P
874.974	2.101	550690	PROB	2.074	n/a	n/a	-999	6	[1, 5, 3]	9.0	FR1	2	R1066P
877.075	2.8	551741	PROB	2.764	n/a	n/a	-999	6	[5, 9, 7]	21.0	FR1	2	R1066P
879.875	4.918	553141	PROB	4.893	n/a	n/a	-999	6	[3, 4, 3]	10.0	FR1	2	R1066P
884.793	3.414	555599	PROB	3.414	n/a	n/a	-999	6	[5, 8, 7]	20.0	FR1	2	R1066P
888.207	0.02	557306	STOP	n/a	n/a	n/a	-999	6	[-999, -999, -999]	n/a	FR1	2	R1066P
888.227	1.134	557316	DISTRACT_END	n/a	n/a	n/a	-999	6	[0, 0, 0]	n/a	FR1	2	R1066P
889.361	1.138	557883	REC_START	n/a	n/a	n/a	-999	6	[0, 0, 0]	n/a	FR1	2	R1066P
890.499	1.112	558452	REC_WORD	1.138	n/a	SQUARE	1	6	[0, 0, 0]	n/a	FR1	2	R1066P
891.611	1.001	559008	REC_WORD	2.25	n/a	BOWL	3	6	[0, 0, 0]	n/a	FR1	2	R1066P
892.612	1.758	559509	REC_WORD	3.251	n/a	WOOD	5	6	[0, 0, 0]	n/a	FR1	2	R1066P
894.37	3.457	560388	REC_WORD	5.009	n/a	STONE	-999	6	[0, 0, 0]	n/a	FR1	2	R1066P
897.827	5.691	562116	REC_WORD_VV	8.466	n/a	<>	-999	6	[0, 0, 0]	n/a	FR1	2	R1066P
903.518	2.923	564961	REC_WORD	14.157	n/a	BOX	-999	6	[0, 0, 0]	n/a	FR1	2	R1066P
906.441	12.93	566423	REC_WORD	17.08	n/a	CROWN	7	6	[0, 0, 0]	n/a	FR1	2	R1066P
919.371	232.722	572887	REC_END	n/a	n/a	n/a	-999	6	[0, 0, 0]	n/a	FR1	2	R1066P
1152.093	0.0	689242	TRIAL	n/a	n/a	n/a	-999	7	[0, 0, 0]	n/a	FR1	2	R1066P
1152.093	10.0	689242	COUNTDOWN_START	n/a	n/a	n/a	-999	7	[0, 0, 0]	n/a	FR1	2	R1066P
1162.521	0.007	694456	COUNTDOWN_END	n/a	n/a	n/a	-999	7	[0, 0, 0]	n/a	FR1	2	R1066P
1162.528	1.6	694460	ORIENT	n/a	n/a	n/a	-999	7	[0, 0, 0]	n/a	FR1	2	R1066P
1165.078	1.6	695735	WORD	n/a	wordpools/wordpool_EN.txt	MAT	1	7	[0, 0, 0]	n/a	FR1	2	R1066P
1167.663	1.6	697027	WORD	n/a	wordpools/wordpool_EN.txt	COW	2	7	[0, 0, 0]	n/a	FR1	2	R1066P
1170.129	1.6	698260	WORD	n/a	wordpools/wordpool_EN.txt	PIE	3	7	[0, 0, 0]	n/a	FR1	2	R1066P
1172.513	1.6	699452	WORD	n/a	wordpools/wordpool_EN.txt	BREAD	4	7	[0, 0, 0]	n/a	FR1	2	R1066P
1175.03	1.6	700710	WORD	n/a	wordpools/wordpool_EN.txt	DOLL	5	7	[0, 0, 0]	n/a	FR1	2	R1066P
1177.581	1.6	701986	WORD	n/a	wordpools/wordpool_EN.txt	VASE	6	7	[0, 0, 0]	n/a	FR1	2	R1066P
1180.065	1.6	703228	WORD	n/a	wordpools/wordpool_EN.txt	SPRING	7	7	[0, 0, 0]	n/a	FR1	2	R1066P
1182.498	1.6	704444	WORD	n/a	wordpools/wordpool_EN.txt	SINK	8	7	[0, 0, 0]	n/a	FR1	2	R1066P
1184.949	1.6	705670	WORD	n/a	wordpools/wordpool_EN.txt	SEAT	9	7	[0, 0, 0]	n/a	FR1	2	R1066P
1187.566	1.6	706978	WORD	n/a	wordpools/wordpool_EN.txt	SHEEP	10	7	[0, 0, 0]	n/a	FR1	2	R1066P
1190.116	1.6	708253	WORD	n/a	wordpools/wordpool_EN.txt	CLOTH	11	7	[0, 0, 0]	n/a	FR1	2	R1066P
1192.668	1.6	709529	WORD	n/a	wordpools/wordpool_EN.txt	BLUSH	12	7	[0, 0, 0]	n/a	FR1	2	R1066P
1194.284	0.001	710337	DISTRACT_START	n/a	n/a	n/a	-999	7	[0, 0, 0]	n/a	FR1	2	R1066P
1194.285	0.016	710337	START	n/a	n/a	n/a	-999	7	[-999, -999, -999]	n/a	FR1	2	R1066P
1194.301	4.284	710345	PROB	4.259	n/a	n/a	-999	7	[7, 6, 3]	16.0	FR1	2	R1066P
1198.585	2.45	712487	PROB	2.422	n/a	n/a	-999	7	[9, 9, 4]	22.0	FR1	2	R1066P
1201.035	2.951	713712	PROB	2.917	n/a	n/a	-999	7	[5, 5, 1]	11.0	FR1	2	R1066P
1203.986	1.85	715188	PROB	1.813	n/a	n/a	-999	7	[3, 3, 2]	8.0	FR1	2	R1066P
1205.836	2.751	716112	PROB	2.723	n/a	n/a	-999	7	[9, 8, 1]	18.0	FR1	2	R1066P
1208.587	2.467	717488	PROB	2.436	n/a	n/a	-999	7	[5, 7, 9]	21.0	FR1	2	R1066P
1211.054	2.117	718721	PROB	2.089	n/a	n/a	-999	7	[8, 1, 4]	13.0	FR1	2	R1066P
1213.171	2.412	719780	PROB	2.412	n/a	n/a	-999	7	[4, 1, 3]	8.0	FR1	2	R1066P
1215.583	0.005	720986	STOP	n/a	n/a	n/a	-999	7	[-999, -999, -999]	n/a	FR1	2	R1066P
1215.588	1.101	720988	DISTRACT_END	n/a	n/a	n/a	-999	7	[0, 0, 0]	n/a	FR1	2	R1066P
1216.689	0.513	721539	REC_START	n/a	n/a	n/a	-999	7	[0, 0, 0]	n/a	FR1	2	R1066P
1217.202	0.388	721795	REC_WORD_VV	0.513	n/a	<>	-999	7	[0, 0, 0]	n/a	FR1	2	R1066P
1217.59	0.672	721989	REC_WORD	0.901	n/a	MAT	1	7	[0, 0, 0]	n/a	FR1	2	R1066P
1218.262	0.723	722325	REC_WORD	1.573	n/a	COW	2	7	[0, 0, 0]	n/a	FR1	2	R1066P
1218.985	3.262	722687	REC_WORD	2.296	n/a	PIE	3	7	[0, 0, 0]	n/a	FR1	2	R1066P
1222.247	8.122	724318	REC_WORD	5.558	n/a	SHEEP	10	7	[0, 0, 0]	n/a	FR1	2	R1066P
1230.369	16.33	728378	REC_WORD_VV	13.68	n/a	<>	-999	7	[0, 0, 0]	n/a	FR1	2	R1066P
1246.699	2.179	736543	REC_END	n/a	n/a	n/a	-999	7	[0, 0, 0]	n/a	FR1	2	R1066P
1248.878	0.0	737632	TRIAL	n/a	n/a	n/a	-999	8	[0, 0, 0]	n/a	FR1	2	R1066P
1248.878	10.0	737632	COUNTDOWN_START	n/a	n/a	n/a	-999	8	[0, 0, 0]	n/a	FR1	2	R1066P
1259.306	0.007	742846	COUNTDOWN_END	n/a	n/a	n/a	-999	8	[0, 0, 0]	n/a	FR1	2	R1066P
1259.313	1.6	742850	ORIENT	n/a	n/a	n/a	-999	8	[0, 0, 0]	n/a	FR1	2	R1066P
1261.93	1.6	744158	WORD	n/a	wordpools/wordpool_EN.txt	BOMB	1	8	[0, 0, 0]	n/a	FR1	2	R1066P
1264.33	1.6	745358	WORD	n/a	wordpools/wordpool_EN.txt	FORT	2	8	[0, 0, 0]	n/a	FR1	2	R1066P
1266.931	1.6	746658	WORD	n/a	wordpools/wordpool_EN.txt	STEAM	3	8	[0, 0, 0]	n/a	FR1	2	R1066P
1269.365	1.6	747875	WORD	n/a	wordpools/wordpool_EN.txt	DRUM	4	8	[0, 0, 0]	n/a	FR1	2	R1066P
1271.898	1.6	749142	WORD	n/a	wordpools/wordpool_EN.txt	BARN	5	8	[0, 0, 0]	n/a	FR1	2	R1066P
1274.299	1.6	750342	WORD	n/a	wordpools/wordpool_EN.txt	TRASH	6	8	[0, 0, 0]	n/a	FR1	2	R1066P
1276.883	1.6	751634	WORD	n/a	wordpools/wordpool_EN.txt	FLUTE	7	8	[0, 0, 0]	n/a	FR1	2	R1066P
1279.45	1.6	752918	WORD	n/a	wordpools/wordpool_EN.txt	WHEEL	8	8	[0, 0, 0]	n/a	FR1	2	R1066P
1281.834	1.6	754109	WORD	n/a	wordpools/wordpool_EN.txt	RAIN	9	8	[0, 0, 0]	n/a	FR1	2	R1066P
1284.284	1.6	755334	WORD	n/a	wordpools/wordpool_EN.txt	BRIDGE	10	8	[0, 0, 0]	n/a	FR1	2	R1066P
1286.868	1.6	756626	WORD	n/a	wordpools/wordpool_EN.txt	LAND	11	8	[0, 0, 0]	n/a	FR1	2	R1066P
1289.435	1.6	757910	WORD	n/a	wordpools/wordpool_EN.txt	FOG	12	8	[0, 0, 0]	n/a	FR1	2	R1066P
1291.052	0.001	758718	DISTRACT_START	n/a	n/a	n/a	-999	8	[0, 0, 0]	n/a	FR1	2	R1066P
1291.053	0.016	758719	START	n/a	n/a	n/a	-999	8	[-999, -999, -999]	n/a	FR1	2	R1066P
1291.069	2.7	758727	PROB	2.666	n/a	n/a	-999	8	[9, 3, 7]	19.0	FR1	2	R1066P
1293.769	2.351	760077	PROB	2.326	n/a	n/a	-999	8	[3, 5, 5]	8.0	FR1	2	R1066P
1296.12	2.75	761252	PROB	2.719	n/a	n/a	-999	8	[6, 1, 3]	12.0	FR1	2	R1066P
1298.87	1.667	762627	PROB	1.634	n/a	n/a	-999	8	[9, 9, 9]	18.0	FR1	2	R1066P
1300.537	2.517	763460	PROB	2.487	n/a	n/a	-999	8	[1, 8, 6]	15.0	FR1	2	R1066P
1303.054	2.751	764719	PROB	2.722	n/a	n/a	-999	8	[5, 3, 9]	17.0	FR1	2	R1066P
1305.805	3.367	766094	PROB	3.347	n/a	n/a	-999	8	[1, 8, 7]	16.0	FR1	2	R1066P
1309.172	1.955	767778	PROB	1.955	n/a	n/a	-999	8	[7, 4, 7]	18.0	FR1	2	R1066P
1311.127	0.012	768755	STOP	n/a	n/a	n/a	-999	8	[-999, -999, -999]	n/a	FR1	2	R1066P
1311.139	1.084	768761	DISTRACT_END	n/a	n/a	n/a	-999	8	[0, 0, 0]	n/a	FR1	2	R1066P
1312.223	2.302	769303	REC_START	n/a	n/a	n/a	-999	8	[0, 0, 0]	n/a	FR1	2	R1066P
1314.525	0.841	770454	REC_WORD_VV	2.302	n/a	<>	-999	8	[0, 0, 0]	n/a	FR1	2	R1066P
1315.366	0.855	770875	REC_WORD	3.143	n/a	BOMB	1	8	[0, 0, 0]	n/a	FR1	2	R1066P
1316.221	2.19	771302	REC_WORD	3.998	n/a	STEAM	3	8	[0, 0, 0]	n/a	FR1	2	R1066P
1318.411	7.415	772397	REC_WORD	6.188	n/a	FORK	-999	8	[0, 0, 0]	n/a	FR1	2	R1066P
1325.826	9.191	776104	REC_WORD	13.603	n/a	LAND	11	8	[0, 0, 0]	n/a	FR1	2	R1066P
1335.017	6.542	780700	REC_WORD	22.794	n/a	MAP	-999	8	[0, 0, 0]	n/a	FR1	2	R1066P
1341.559	0.415	783970	REC_WORD	29.336	n/a	BOMB	1	8	[0, 0, 0]	n/a	FR1	2	R1066P
1341.974	0.265	784178	REC_WORD_VV	29.751	n/a	<>	-999	8	[0, 0, 0]	n/a	FR1	2	R1066P
1342.239	4.223	784310	REC_END	n/a	n/a	n/a	-999	8	[0, 0, 0]	n/a	FR1	2	R1066P
1346.462	10.0	786422	COUNTDOWN_START	n/a	n/a	n/a	-999	9	[0, 0, 0]	n/a	FR1	2	R1066P
1346.463	10.427	786422	TRIAL	n/a	n/a	n/a	-999	9	[0, 0, 0]	n/a	FR1	2	R1066P
1356.89	0.008	791636	COUNTDOWN_END	n/a	n/a	n/a	-999	9	[0, 0, 0]	n/a	FR1	2	R1066P
1356.898	1.6	791640	ORIENT	n/a	n/a	n/a	-999	9	[0, 0, 0]	n/a	FR1	2	R1066P
1359.282	1.6	792831	WORD	n/a	wordpools/wordpool_EN.txt	SCHOOL	1	9	[0, 0, 0]	n/a	FR1	2	R1066P
1361.666	1.6	794023	WORD	n/a	wordpools/wordpool_EN.txt	RAT	2	9	[0, 0, 0]	n/a	FR1	2	R1066P
1364.082	1.6	795231	WORD	n/a	wordpools/wordpool_EN.txt	VAN	3	9	[0, 0, 0]	n/a	FR1	2	R1066P
1366.566	1.6	796473	WORD	n/a	wordpools/wordpool_EN.txt	PET	4	9	[0, 0, 0]	n/a	FR1	2	R1066P
1369.067	1.6	797724	WORD	n/a	wordpools/wordpool_EN.txt	HAWK	5	9	[0, 0, 0]	n/a	FR1	2	R1066P
1371.484	1.6	798932	WORD	n/a	wordpools/wordpool_EN.txt	SKUNK	6	9	[0, 0, 0]	n/a	FR1	2	R1066P
1373.968	1.6	800174	WORD	n/a	wordpools/wordpool_EN.txt	POND	7	9	[0, 0, 0]	n/a	FR1	2	R1066P
1376.518	1.6	801449	WORD	n/a	wordpools/wordpool_EN.txt	DUCK	8	9	[0, 0, 0]	n/a	FR1	2	R1066P
1379.135	1.6	802757	WORD	n/a	wordpools/wordpool_EN.txt	BOARD	9	9	[0, 0, 0]	n/a	FR1	2	R1066P
1381.62	1.6	804000	WORD	n/a	wordpools/wordpool_EN.txt	DOCK	10	9	[0, 0, 0]	n/a	FR1	2	R1066P
1384.003	1.6	805191	WORD	n/a	wordpools/wordpool_EN.txt	STORE	11	9	[0, 0, 0]	n/a	FR1	2	R1066P
1386.503	1.6	806441	WORD	n/a	wordpools/wordpool_EN.txt	APE	12	9	[0, 0, 0]	n/a	FR1	2	R1066P
1388.12	0.001	807250	DISTRACT_START	n/a	n/a	n/a	-999	9	[0, 0, 0]	n/a	FR1	2	R1066P
1388.121	0.016	807250	START	n/a	n/a	n/a	-999	9	[-999, -999, -999]	n/a	FR1	2	R1066P
1388.137	2.535	807258	PROB	2.512	n/a	n/a	-999	9	[2, 3, 2]	7.0	FR1	2	R1066P
1390.672	3.316	808526	PROB	3.287	n/a	n/a	-999	9	[2, 7, 1]	10.0	FR1	2	R1066P
1393.988	4.001	810184	PROB	3.971	n/a	n/a	-999	9	[4, 5, 6]	13.0	FR1	2	R1066P
1397.989	2.668	812184	PROB	2.635	n/a	n/a	-999	9	[5, 8, 3]	14.0	FR1	2	R1066P
1400.657	3.4	813518	PROB	3.375	n/a	n/a	-999	9	[5, 3, 1]	9.0	FR1	2	R1066P
1404.057	3.267	815218	PROB	3.23	n/a	n/a	-999	9	[6, 9, 3]	18.0	FR1	2	R1066P
1407.324	2.539	816851	PROB	2.539	n/a	n/a	-999	9	[5, 3, 1]	9.0	FR1	2	R1066P
1409.863	0.011	818121	STOP	n/a	n/a	n/a	-999	9	[-999, -999, -999]	n/a	FR1	2	R1066P
1409.874	1.118	818126	DISTRACT_END	n/a	n/a	n/a	-999	9	[0, 0, 0]	n/a	FR1	2	R1066P
1410.992	2.567	818685	REC_START	n/a	n/a	n/a	-999	9	[0, 0, 0]	n/a	FR1	2	R1066P
1413.559	8.415	819969	REC_WORD_VV	2.567	n/a	<>	-999	9	[0, 0, 0]	n/a	FR1	2	R1066P
1421.974	1.0	824176	REC_WORD_VV	10.982	n/a	<>	-999	9	[0, 0, 0]	n/a	FR1	2	R1066P
1422.974	1.0	824676	REC_WORD_VV	11.982	n/a	<>	-999	9	[0, 0, 0]	n/a	FR1	2	R1066P
1423.974	17.026	825176	REC_WORD_VV	12.982	n/a	<>	-999	9	[0, 0, 0]	n/a	FR1	2	R1066P
1441.0	3.948	833688	REC_END	n/a	n/a	n/a	-999	9	[0, 0, 0]	n/a	FR1	2	R1066P
1444.948	0.0	835662	TRIAL	n/a	n/a	n/a	-999	10	[0, 0, 0]	n/a	FR1	2	R1066P
1444.948	10.0	835662	COUNTDOWN_START	n/a	n/a	n/a	-999	10	[0, 0, 0]	n/a	FR1	2	R1066P
1455.376	0.007	840876	COUNTDOWN_END	n/a	n/a	n/a	-999	10	[0, 0, 0]	n/a	FR1	2	R1066P
1455.383	1.6	840879	ORIENT	n/a	n/a	n/a	-999	10	[0, 0, 0]	n/a	FR1	2	R1066P
1457.783	1.6	842079	WORD	n/a	wordpools/wordpool_EN.txt	LAMP	1	10	[0, 0, 0]	n/a	FR1	2	R1066P
1460.417	1.6	843396	WORD	n/a	wordpools/wordpool_EN.txt	BOX	2	10	[0, 0, 0]	n/a	FR1	2	R1066P
1462.801	1.6	844588	WORD	n/a	wordpools/wordpool_EN.txt	CHAIR	3	10	[0, 0, 0]	n/a	FR1	2	R1066P
1465.251	1.6	845813	WORD	n/a	wordpools/wordpool_EN.txt	PHONE	4	10	[0, 0, 0]	n/a	FR1	2	R1066P
1467.685	1.6	847030	WORD	n/a	wordpools/wordpool_EN.txt	GATE	5	10	[0, 0, 0]	n/a	FR1	2	R1066P
1470.236	1.6	848306	WORD	n/a	wordpools/wordpool_EN.txt	OAK	6	10	[0, 0, 0]	n/a	FR1	2	R1066P
1472.703	1.6	849539	WORD	n/a	wordpools/wordpool_EN.txt	SHARK	7	10	[0, 0, 0]	n/a	FR1	2	R1066P
1475.17	1.6	850772	WORD	n/a	wordpools/wordpool_EN.txt	LOCK	8	10	[0, 0, 0]	n/a	FR1	2	R1066P
1477.687	1.6	852031	WORD	n/a	wordpools/wordpool_EN.txt	STREET	9	10	[0, 0, 0]	n/a	FR1	2	R1066P
1480.104	1.6	853239	WORD	n/a	wordpools/wordpool_EN.txt	MAZE	10	10	[0, 0, 0]	n/a	FR1	2	R1066P
1482.672	1.6	854523	WORD	n/a	wordpools/wordpool_EN.txt	CLOCK	11	10	[0, 0, 0]	n/a	FR1	2	R1066P
1485.138	1.6	855756	WORD	n/a	wordpools/wordpool_EN.txt	LAWN	12	10	[0, 0, 0]	n/a	FR1	2	R1066P
1486.755	0.001	856565	DISTRACT_START	n/a	n/a	n/a	-999	10	[0, 0, 0]	n/a	FR1	2	R1066P
1486.756	0.016	856565	START	n/a	n/a	n/a	-999	10	[-999, -999, -999]	n/a	FR1	2	R1066P
1486.772	2.902	856573	PROB	2.877	n/a	n/a	-999	10	[6, 5, 4]	15.0	FR1	2	R1066P
1489.674	2.466	858024	PROB	2.445	n/a	n/a	-999	10	[5, 3, 2]	10.0	FR1	2	R1066P
1492.14	2.15	859257	PROB	2.115	n/a	n/a	-999	10	[7, 2, 7]	16.0	FR1	2	R1066P
1494.29	2.151	860332	PROB	2.117	n/a	n/a	-999	10	[5, 9, 9]	23.0	FR1	2	R1066P
1496.441	3.083	861407	PROB	3.054	n/a	n/a	-999	10	[1, 8, 3]	12.0	FR1	2	R1066P
1499.524	2.368	862949	PROB	2.331	n/a	n/a	-999	10	[4, 2, 3]	9.0	FR1	2	R1066P
1501.892	2.35	864133	PROB	2.315	n/a	n/a	-999	10	[9, 4, 7]	20.0	FR1	2	R1066P
1504.242	4.07	865308	PROB	4.07	n/a	n/a	-999	10	[7, 4, 5]	16.0	FR1	2	R1066P
1508.312	0.014	867343	STOP	n/a	n/a	n/a	-999	10	[-999, -999, -999]	n/a	FR1	2	R1066P
1508.326	1.184	867350	DISTRACT_END	n/a	n/a	n/a	-999	10	[0, 0, 0]	n/a	FR1	2	R1066P
1509.51	1.151	867942	REC_START	n/a	n/a	n/a	-999	10	[0, 0, 0]	n/a	FR1	2	R1066P
1510.661	0.562	868517	REC_WORD	1.151	n/a	LAMP	1	10	[0, 0, 0]	n/a	FR1	2	R1066P
1511.223	0.617	868798	REC_WORD	1.713	n/a	BOX	2	10	[0, 0, 0]	n/a	FR1	2	R1066P
1511.84	0.941	869106	REC_WORD	2.33	n/a	CHAIR	3	10	[0, 0, 0]	n/a	FR1	2	R1066P
1512.781	1.441	869577	REC_WORD	3.271	n/a	WOOD	-999	10	[0, 0, 0]	n/a	FR1	2	R1066P
1514.222	2.203	870297	REC_WORD	4.712	n/a	ROCK	-999	10	[0, 0, 0]	n/a	FR1	2	R1066P
1516.425	5.356	871399	REC_WORD	6.915	n/a	HOOK	-999	10	[0, 0, 0]	n/a	FR1	2	R1066P
1521.781	14.396	874077	REC_WORD	12.271	n/a	SHARK	7	10	[0, 0, 0]	n/a	FR1	2	R1066P
1536.177	2.275	881274	REC_WORD	26.667	n/a	LOCK	8	10	[0, 0, 0]	n/a	FR1	2	R1066P
1538.452	1.069	882412	REC_WORD	28.942	n/a	DOOR	-999	10	[0, 0, 0]	n/a	FR1	2	R1066P
1539.521	34.434	882946	REC_END	n/a	n/a	n/a	-999	10	[0, 0, 0]	n/a	FR1	2	R1066P
1573.955	0.0	900162	TRIAL	n/a	n/a	n/a	-999	11	[0, 0, 0]	n/a	FR1	2	R1066P
1573.955	10.0	900162	COUNTDOWN_START	n/a	n/a	n/a	-999	11	[0, 0, 0]	n/a	FR1	2	R1066P
1584.383	0.007	905376	COUNTDOWN_END	n/a	n/a	n/a	-999	11	[0, 0, 0]	n/a	FR1	2	R1066P
1584.39	1.6	905380	ORIENT	n/a	n/a	n/a	-999	11	[0, 0, 0]	n/a	FR1	2	R1066P
1586.841	1.6	906605	WORD	n/a	wordpools/wordpool_EN.txt	MAP	1	11	[0, 0, 0]	n/a	FR1	2	R1066P
1589.341	1.6	907855	WORD	n/a	wordpools/wordpool_EN.txt	SEED	2	11	[0, 0, 0]	n/a	FR1	2	R1066P
1591.725	1.6	909047	WORD	n/a	wordpools/wordpool_EN.txt	SHELL	3	11	[0, 0, 0]	n/a	FR1	2	R1066P
1594.276	1.6	910322	WORD	n/a	wordpools/wordpool_EN.txt	GOLD	4	11	[0, 0, 0]	n/a	FR1	2	R1066P
1596.893	1.6	911631	WORD	n/a	wordpools/wordpool_EN.txt	SNAKE	5	11	[0, 0, 0]	n/a	FR1	2	R1066P
1599.427	1.6	912898	WORD	n/a	wordpools/wordpool_EN.txt	PLANT	6	11	[0, 0, 0]	n/a	FR1	2	R1066P
1601.927	1.6	914148	WORD	n/a	wordpools/wordpool_EN.txt	WORLD	7	11	[0, 0, 0]	n/a	FR1	2	R1066P
1604.411	1.6	915390	WORD	n/a	wordpools/wordpool_EN.txt	STEM	8	11	[0, 0, 0]	n/a	FR1	2	R1066P
1606.928	1.6	916648	WORD	n/a	wordpools/wordpool_EN.txt	ROSE	9	11	[0, 0, 0]	n/a	FR1	2	R1066P
1609.395	1.6	917881	WORD	n/a	wordpools/wordpool_EN.txt	MOTH	10	11	[0, 0, 0]	n/a	FR1	2	R1066P
1611.812	1.6	919090	WORD	n/a	wordpools/wordpool_EN.txt	CLOUD	11	11	[0, 0, 0]	n/a	FR1	2	R1066P
1614.413	1.6	920390	WORD	n/a	wordpools/wordpool_EN.txt	KEY	12	11	[0, 0, 0]	n/a	FR1	2	R1066P
1616.03	0.0	921199	DISTRACT_START	n/a	n/a	n/a	-999	11	[0, 0, 0]	n/a	FR1	2	R1066P
1616.03	0.016	921199	START	n/a	n/a	n/a	-999	11	[-999, -999, -999]	n/a	FR1	2	R1066P
1616.046	3.318	921207	PROB	3.289	n/a	n/a	-999	11	[6, 1, 1]	8.0	FR1	2	R1066P
1619.364	2.617	922866	PROB	2.587	n/a	n/a	-999	11	[9, 9, 7]	24.0	FR1	2	R1066P
1621.981	2.55	924174	PROB	2.53	n/a	n/a	-999	11	[4, 7, 6]	17.0	FR1	2	R1066P
1624.531	2.717	925449	PROB	2.684	n/a	n/a	-999	11	[4, 5, 3]	12.0	FR1	2	R1066P
1627.248	2.884	926807	PROB	2.864	n/a	n/a	-999	11	[9, 3, 3]	15.0	FR1	2	R1066P
1630.132	2.601	928249	PROB	2.58	n/a	n/a	-999	11	[6, 4, 7]	17.0	FR1	2	R1066P
1632.733	2.567	929550	PROB	2.539	n/a	n/a	-999	11	[7, 6, 4]	17.0	FR1	2	R1066P
1635.3	3.547	930833	PROB	3.547	n/a	n/a	-999	11	[8, 4, 4]	16.0	FR1	2	R1066P
1638.847	0.02	932607	STOP	n/a	n/a	n/a	-999	11	[-999, -999, -999]	n/a	FR1	2	R1066P
1638.867	1.101	932617	DISTRACT_END	n/a	n/a	n/a	-999	11	[0, 0, 0]	n/a	FR1	2	R1066P
1639.968	2.576	933167	REC_START	n/a	n/a	n/a	-999	11	[0, 0, 0]	n/a	FR1	2	R1066P
1642.544	1.0	934455	REC_WORD_VV	2.576	n/a	<>	-999	11	[0, 0, 0]	n/a	FR1	2	R1066P
1643.544	1.0	934955	REC_WORD_VV	3.576	n/a	<>	-999	11	[0, 0, 0]	n/a	FR1	2	R1066P
1644.544	3.266	935455	REC_WORD_VV	4.576	n/a	<>	-999	11	[0, 0, 0]	n/a	FR1	2	R1066P
1647.81	0.974	937088	REC_WORD	7.842	n/a	MOTH	10	11	[0, 0, 0]	n/a	FR1	2	R1066P
1648.784	3.035	937575	REC_WORD	8.816	n/a	FLOWER	-999	11	[0, 0, 0]	n/a	FR1	2	R1066P
1651.819	8.698	939092	REC_WORD	11.851	n/a	CLOUD	11	11	[0, 0, 0]	n/a	FR1	2	R1066P
1660.517	9.461	943441	REC_WORD_VV	20.549	n/a	<>	-999	11	[0, 0, 0]	n/a	FR1	2	R1066P
1669.978	2.029	948171	REC_END	n/a	n/a	n/a	-999	11	[0, 0, 0]	n/a	FR1	2	R1066P
1672.007	10.0	949186	COUNTDOWN_START	n/a	n/a	n/a	-999	12	[0, 0, 0]	n/a	FR1	2	R1066P
1672.007	10.428	949186	TRIAL	n/a	n/a	n/a	-999	12	[0, 0, 0]	n/a	FR1	2	R1066P
1682.435	0.007	954399	COUNTDOWN_END	n/a	n/a	n/a	-999	12	[0, 0, 0]	n/a	FR1	2	R1066P
1682.442	1.6	954403	ORIENT	n/a	n/a	n/a	-999	12	[0, 0, 0]	n/a	FR1	2	R1066P
1684.842	1.6	955603	WORD	n/a	wordpools/wordpool_EN.txt	STOVE	1	12	[0, 0, 0]	n/a	FR1	2	R1066P
1687.443	1.6	956903	WORD	n/a	wordpools/wordpool_EN.txt	TRUCK	2	12	[0, 0, 0]	n/a	FR1	2	R1066P
1689.977	1.6	958170	WORD	n/a	wordpools/wordpool_EN.txt	PARK	3	12	[0, 0, 0]	n/a	FR1	2	R1066P
1692.494	1.6	959429	WORD	n/a	wordpools/wordpool_EN.txt	SIGN	4	12	[0, 0, 0]	n/a	FR1	2	R1066P
1694.978	1.6	960671	WORD	n/a	wordpools/wordpool_EN.txt	BATH	5	12	[0, 0, 0]	n/a	FR1	2	R1066P
1697.412	1.6	961888	WORD	n/a	wordpools/wordpool_EN.txt	STAIR	6	12	[0, 0, 0]	n/a	FR1	2	R1066P
1700.012	1.6	963188	WORD	n/a	wordpools/wordpool_EN.txt	STRAW	7	12	[0, 0, 0]	n/a	FR1	2	R1066P
1702.429	1.6	964396	WORD	n/a	wordpools/wordpool_EN.txt	MILK	8	12	[0, 0, 0]	n/a	FR1	2	R1066P
1704.93	1.6	965646	WORD	n/a	wordpools/wordpool_EN.txt	VEST	9	12	[0, 0, 0]	n/a	FR1	2	R1066P
1707.447	1.6	966905	WORD	n/a	wordpools/wordpool_EN.txt	SWAMP	10	12	[0, 0, 0]	n/a	FR1	2	R1066P
1710.047	1.6	968205	WORD	n/a	wordpools/wordpool_EN.txt	FARM	11	12	[0, 0, 0]	n/a	FR1	2	R1066P
1712.431	1.6	969397	WORD	n/a	wordpools/wordpool_EN.txt	WEED	12	12	[0, 0, 0]	n/a	FR1	2	R1066P
1714.048	0.001	970205	DISTRACT_START	n/a	n/a	n/a	-999	12	[0, 0, 0]	n/a	FR1	2	R1066P
1714.049	0.016	970206	START	n/a	n/a	n/a	-999	12	[-999, -999, -999]	n/a	FR1	2	R1066P
1714.065	3.65	970214	PROB	3.616	n/a	n/a	-999	12	[5, 2, 4]	11.0	FR1	2	R1066P
1717.715	2.417	972039	PROB	2.388	n/a	n/a	-999	12	[1, 4, 9]	14.0	FR1	2	R1066P
1720.132	2.284	973247	PROB	2.251	n/a	n/a	-999	12	[5, 8, 1]	14.0	FR1	2	R1066P
1722.416	2.701	974389	PROB	2.679	n/a	n/a	-999	12	[2, 3, 7]	12.0	FR1	2	R1066P
1725.117	1.867	975739	PROB	1.843	n/a	n/a	-999	12	[2, 4, 1]	7.0	FR1	2	R1066P
1726.984	3.734	976673	PROB	3.711	n/a	n/a	-999	12	[2, 7, 8]	17.0	FR1	2	R1066P
1730.718	3.217	978540	PROB	3.185	n/a	n/a	-999	12	[5, 2, 8]	15.0	FR1	2	R1066P
1733.935	3.44	980148	PROB	3.44	n/a	n/a	-999	12	[8, 4, 3]	15.0	FR1	2	R1066P
1737.375	0.011	981868	STOP	n/a	n/a	n/a	-999	12	[-999, -999, -999]	n/a	FR1	2	R1066P
1737.386	1.1	981874	DISTRACT_END	n/a	n/a	n/a	-999	12	[0, 0, 0]	n/a	FR1	2	R1066P
1738.486	0.306	982424	REC_START	n/a	n/a	n/a	-999	12	[0, 0, 0]	n/a	FR1	2	R1066P
1738.792	0.345	982577	REC_WORD_VV	0.306	n/a	<>	-999	12	[0, 0, 0]	n/a	FR1	2	R1066P
1739.137	0.563	982749	REC_WORD	0.651	n/a	TRUCK	2	12	[0, 0, 0]	n/a	FR1	2	R1066P
1739.7	0.518	983030	REC_WORD	1.214	n/a	PARK	3	12	[0, 0, 0]	n/a	FR1	2	R1066P
1740.218	2.546	983289	REC_WORD	1.732	n/a	SIGN	4	12	[0, 0, 0]	n/a	FR1	2	R1066P
1742.764	5.182	984562	REC_WORD_VV	4.278	n/a	<>	-999	12	[0, 0, 0]	n/a	FR1	2	R1066P
1747.946	20.555	987153	REC_WORD	9.46	n/a	BATH	5	12	[0, 0, 0]	n/a	FR1	2	R1066P
1768.501	16.293	997430	REC_END	n/a	n/a	n/a	-999	12	[0, 0, 0]	n/a	FR1	2	R1066P
1784.794	10.0	1005576	COUNTDOWN_START	n/a	n/a	n/a	-999	13	[0, 0, 0]	n/a	FR1	2	R1066P
1784.795	10.427	1005577	TRIAL	n/a	n/a	n/a	-999	13	[0, 0, 0]	n/a	FR1	2	R1066P
1795.222	0.008	1010790	COUNTDOWN_END	n/a	n/a	n/a	-999	13	[0, 0, 0]	n/a	FR1	2	R1066P
1795.23	1.6	1010794	ORIENT	n/a	n/a	n/a	-999	13	[0, 0, 0]	n/a	FR1	2	R1066P
1797.615	1.6	1011986	WORD	n/a	wordpools/wordpool_EN.txt	SMILE	1	13	[0, 0, 0]	n/a	FR1	2	R1066P
1800.064	1.6	1013211	WORD	n/a	wordpools/wordpool_EN.txt	LAKE	2	13	[0, 0, 0]	n/a	FR1	2	R1066P
1802.616	1.6	1014487	WORD	n/a	wordpools/wordpool_EN.txt	TRAY	3	13	[0, 0, 0]	n/a	FR1	2	R1066P
1805.082	1.6	1015720	WORD	n/a	wordpools/wordpool_EN.txt	SUN	4	13	[0, 0, 0]	n/a	FR1	2	R1066P
1807.65	1.6	1017004	WORD	n/a	wordpools/wordpool_EN.txt	THUMB	5	13	[0, 0, 0]	n/a	FR1	2	R1066P
1810.133	1.6	1018245	WORD	n/a	wordpools/wordpool_EN.txt	SKY	6	13	[0, 0, 0]	n/a	FR1	2	R1066P
1812.634	1.6	1019496	WORD	n/a	wordpools/wordpool_EN.txt	BEACH	7	13	[0, 0, 0]	n/a	FR1	2	R1066P
1815.034	1.6	1020696	WORD	n/a	wordpools/wordpool_EN.txt	BEAK	8	13	[0, 0, 0]	n/a	FR1	2	R1066P
1817.534	1.6	1021945	WORD	n/a	wordpools/wordpool_EN.txt	WALL	9	13	[0, 0, 0]	n/a	FR1	2	R1066P
1820.018	1.6	1023187	WORD	n/a	wordpools/wordpool_EN.txt	STORM	10	13	[0, 0, 0]	n/a	FR1	2	R1066P
1822.653	1.6	1024505	WORD	n/a	wordpools/wordpool_EN.txt	BIRD	11	13	[0, 0, 0]	n/a	FR1	2	R1066P
1825.085	1.6	1025721	WORD	n/a	wordpools/wordpool_EN.txt	TIE	12	13	[0, 0, 0]	n/a	FR1	2	R1066P
1826.686	0.001	1026521	DISTRACT_START	n/a	n/a	n/a	-999	13	[0, 0, 0]	n/a	FR1	2	R1066P
1826.687	0.015	1026522	START	n/a	n/a	n/a	-999	13	[-999, -999, -999]	n/a	FR1	2	R1066P
1826.702	3.484	1026529	PROB	3.449	n/a	n/a	-999	13	[7, 7, 9]	13.0	FR1	2	R1066P
1830.186	4.935	1028271	PROB	4.909	n/a	n/a	-999	13	[9, 3, 4]	15.0	FR1	2	R1066P
1835.121	3.067	1030738	PROB	3.038	n/a	n/a	-999	13	[2, 5, 4]	11.0	FR1	2	R1066P
1838.188	1.967	1032272	PROB	1.931	n/a	n/a	-999	13	[7, 7, 4]	18.0	FR1	2	R1066P
1840.155	2.384	1033255	PROB	2.356	n/a	n/a	-999	13	[5, 1, 5]	11.0	FR1	2	R1066P
1842.539	3.434	1034447	PROB	3.404	n/a	n/a	-999	13	[5, 7, 3]	15.0	FR1	2	R1066P
1845.973	2.923	1036164	PROB	2.923	n/a	n/a	-999	13	[2, 7, 8]	17.0	FR1	2	R1066P
1848.896	0.011	1037626	STOP	n/a	n/a	n/a	-999	13	[-999, -999, -999]	n/a	FR1	2	R1066P
1848.907	1.167	1037631	DISTRACT_END	n/a	n/a	n/a	-999	13	[0, 0, 0]	n/a	FR1	2	R1066P
1850.074	0.652	1038215	REC_START	n/a	n/a	n/a	-999	13	[0, 0, 0]	n/a	FR1	2	R1066P
1850.726	0.386	1038541	REC_WORD_VV	0.652	n/a	<>	-999	13	[0, 0, 0]	n/a	FR1	2	R1066P
1851.112	4.498	1038734	REC_WORD	1.038	n/a	LAKE	2	13	[0, 0, 0]	n/a	FR1	2	R1066P
1855.61	0.97	1040982	REC_WORD	5.536	n/a	SKY	6	13	[0, 0, 0]	n/a	FR1	2	R1066P
1856.58	0.967	1041467	REC_WORD	6.506	n/a	CLOUD	-999	13	[0, 0, 0]	n/a	FR1	2	R1066P
1857.547	0.592	1041951	REC_WORD	7.473	n/a	SUN	4	13	[0, 0, 0]	n/a	FR1	2	R1066P
1858.139	0.935	1042247	REC_WORD	8.065	n/a	SMILE	1	13	[0, 0, 0]	n/a	FR1	2	R1066P
1859.074	21.01	1042714	REC_WORD	9.0	n/a	WALL	9	13	[0, 0, 0]	n/a	FR1	2	R1066P
1880.084	24.833	1053219	REC_END	n/a	n/a	n/a	-999	13	[0, 0, 0]	n/a	FR1	2	R1066P
1904.917	10.0	1065635	COUNTDOWN_START	n/a	n/a	n/a	-999	14	[0, 0, 0]	n/a	FR1	2	R1066P
1904.917	10.428	1065635	TRIAL	n/a	n/a	n/a	-999	14	[0, 0, 0]	n/a	FR1	2	R1066P
1915.345	0.007	1070848	COUNTDOWN_END	n/a	n/a	n/a	-999	14	[0, 0, 0]	n/a	FR1	2	R1066P
1915.352	1.6	1070852	ORIENT	n/a	n/a	n/a	-999	14	[0, 0, 0]	n/a	FR1	2	R1066P
1917.853	1.6	1072102	WORD	n/a	wordpools/wordpool_EN.txt	BENCH	1	14	[0, 0, 0]	n/a	FR1	2	R1066P
1920.27	1.6	1073311	WORD	n/a	wordpools/wordpool_EN.txt	COUCH	2	14	[0, 0, 0]	n/a	FR1	2	R1066P
1922.837	1.6	1074594	WORD	n/a	wordpools/wordpool_EN.txt	POOL	3	14	[0, 0, 0]	n/a	FR1	2	R1066P
1925.454	1.6	1075903	WORD	n/a	wordpools/wordpool_EN.txt	AXE	4	14	[0, 0, 0]	n/a	FR1	2	R1066P
1928.005	1.6	1077178	WORD	n/a	wordpools/wordpool_EN.txt	TEA	5	14	[0, 0, 0]	n/a	FR1	2	R1066P
1930.388	1.6	1078369	WORD	n/a	wordpools/wordpool_EN.txt	FLOOR	6	14	[0, 0, 0]	n/a	FR1	2	R1066P
1932.956	1.6	1079653	WORD	n/a	wordpools/wordpool_EN.txt	LEG	7	14	[0, 0, 0]	n/a	FR1	2	R1066P
1935.339	1.6	1080845	WORD	n/a	wordpools/wordpool_EN.txt	HOUSE	8	14	[0, 0, 0]	n/a	FR1	2	R1066P
1937.773	1.6	1082062	WORD	n/a	wordpools/wordpool_EN.txt	PURSE	9	14	[0, 0, 0]	n/a	FR1	2	R1066P
1940.307	1.6	1083329	WORD	n/a	wordpools/wordpool_EN.txt	PALM	10	14	[0, 0, 0]	n/a	FR1	2	R1066P
1942.874	1.6	1084612	WORD	n/a	wordpools/wordpool_EN.txt	DART	11	14	[0, 0, 0]	n/a	FR1	2	R1066P
1945.291	1.6	1085821	WORD	n/a	wordpools/wordpool_EN.txt	SHOE	12	14	[0, 0, 0]	n/a	FR1	2	R1066P
1946.908	0.001	1086629	DISTRACT_START	n/a	n/a	n/a	-999	14	[0, 0, 0]	n/a	FR1	2	R1066P
1946.909	0.016	1086630	START	n/a	n/a	n/a	-999	14	[-999, -999, -999]	n/a	FR1	2	R1066P
1946.925	3.034	1086638	PROB	3.003	n/a	n/a	-999	14	[7, 7, 2]	16.0	FR1	2	R1066P
1949.959	2.668	1088154	PROB	2.64	n/a	n/a	-999	14	[2, 3, 5]	10.0	FR1	2	R1066P
1952.627	1.699	1089488	PROB	1.669	n/a	n/a	-999	14	[4, 6, 9]	19.0	FR1	2	R1066P
1954.326	3.017	1090338	PROB	2.993	n/a	n/a	-999	14	[5, 9, 2]	16.0	FR1	2	R1066P
1957.343	3.785	1091846	PROB	3.761	n/a	n/a	-999	14	[3, 2, 8]	14.0	FR1	2	R1066P
1961.128	2.033	1093739	PROB	2.0	n/a	n/a	-999	14	[3, 2, 6]	1.0	FR1	2	R1066P
1963.161	2.751	1094755	PROB	2.719	n/a	n/a	-999	14	[5, 6, 5]	16.0	FR1	2	R1066P
1965.912	5.72	1096131	PROB	5.72	n/a	n/a	-999	14	[3, 4, 9]	16.0	FR1	2	R1066P
1971.632	0.015	1098990	STOP	n/a	n/a	n/a	-999	14	[-999, -999, -999]	n/a	FR1	2	R1066P
1971.647	1.05	1098998	DISTRACT_END	n/a	n/a	n/a	-999	14	[0, 0, 0]	n/a	FR1	2	R1066P
1972.697	0.577	1099523	REC_START	n/a	n/a	n/a	-999	14	[0, 0, 0]	n/a	FR1	2	R1066P
1973.274	0.499	1099811	REC_WORD_VV	0.577	n/a	<>	-999	14	[0, 0, 0]	n/a	FR1	2	R1066P
1973.773	0.593	1100061	REC_WORD	1.076	n/a	BENCH	1	14	[0, 0, 0]	n/a	FR1	2	R1066P
1974.366	0.669	1100357	REC_WORD	1.669	n/a	COUCH	2	14	[0, 0, 0]	n/a	FR1	2	R1066P
1975.035	1.0	1100692	REC_WORD	2.338	n/a	FLOOR	6	14	[0, 0, 0]	n/a	FR1	2	R1066P
1976.035	1.608	1101192	REC_WORD	3.338	n/a	LEG	7	14	[0, 0, 0]	n/a	FR1	2	R1066P
1977.643	14.791	1101996	REC_WORD	4.946	n/a	SMILE	-999	14	[0, 0, 0]	n/a	FR1	2	R1066P
1992.434	10.273	1109391	REC_WORD	19.737	n/a	LOCK	-999	14	[0, 0, 0]	n/a	FR1	2	R1066P
2002.707	12.064	1114527	REC_END	n/a	n/a	n/a	-999	14	[0, 0, 0]	n/a	FR1	2	R1066P
2014.771	0.0	1120559	TRIAL	n/a	n/a	n/a	-999	15	[0, 0, 0]	n/a	FR1	2	R1066P
2014.771	10.0	1120559	COUNTDOWN_START	n/a	n/a	n/a	-999	15	[0, 0, 0]	n/a	FR1	2	R1066P
2025.199	0.007	1125772	COUNTDOWN_END	n/a	n/a	n/a	-999	15	[0, 0, 0]	n/a	FR1	2	R1066P
2025.206	1.6	1125776	ORIENT	n/a	n/a	n/a	-999	15	[0, 0, 0]	n/a	FR1	2	R1066P
2027.641	1.6	1126993	WORD	n/a	wordpools/wordpool_EN.txt	PEAR	1	15	[0, 0, 0]	n/a	FR1	2	R1066P
2030.24	1.6	1128293	WORD	n/a	wordpools/wordpool_EN.txt	CALF	2	15	[0, 0, 0]	n/a	FR1	2	R1066P
2032.741	1.6	1129543	WORD	n/a	wordpools/wordpool_EN.txt	FOX	3	15	[0, 0, 0]	n/a	FR1	2	R1066P
2035.191	1.6	1130768	WORD	n/a	wordpools/wordpool_EN.txt	EEL	4	15	[0, 0, 0]	n/a	FR1	2	R1066P
2037.66	1.6	1132003	WORD	n/a	wordpools/wordpool_EN.txt	MOUTH	5	15	[0, 0, 0]	n/a	FR1	2	R1066P
2040.292	1.6	1133319	WORD	n/a	wordpools/wordpool_EN.txt	ROOT	6	15	[0, 0, 0]	n/a	FR1	2	R1066P
2042.743	1.6	1134544	WORD	n/a	wordpools/wordpool_EN.txt	CHIEF	7	15	[0, 0, 0]	n/a	FR1	2	R1066P
2045.243	1.6	1135794	WORD	n/a	wordpools/wordpool_EN.txt	LEAF	8	15	[0, 0, 0]	n/a	FR1	2	R1066P
2047.71	1.6	1137027	WORD	n/a	wordpools/wordpool_EN.txt	TOOTH	9	15	[0, 0, 0]	n/a	FR1	2	R1066P
2050.128	1.6	1138236	WORD	n/a	wordpools/wordpool_EN.txt	WEB	10	15	[0, 0, 0]	n/a	FR1	2	R1066P
2052.511	1.6	1139428	WORD	n/a	wordpools/wordpool_EN.txt	CHALK	11	15	[0, 0, 0]	n/a	FR1	2	R1066P
2055.078	1.6	1140711	WORD	n/a	wordpools/wordpool_EN.txt	BRANCH	12	15	[0, 0, 0]	n/a	FR1	2	R1066P
2056.679	0.001	1141512	DISTRACT_START	n/a	n/a	n/a	-999	15	[0, 0, 0]	n/a	FR1	2	R1066P
2056.68	0.015	1141512	START	n/a	n/a	n/a	-999	15	[-999, -999, -999]	n/a	FR1	2	R1066P
2056.695	3.151	1141520	PROB	3.128	n/a	n/a	-999	15	[5, 4, 7]	16.0	FR1	2	R1066P
2059.846	2.384	1143095	PROB	2.361	n/a	n/a	-999	15	[2, 9, 3]	14.0	FR1	2	R1066P
2062.23	2.717	1144287	PROB	2.69	n/a	n/a	-999	15	[5, 6, 8]	19.0	FR1	2	R1066P
2064.947	2.55	1145645	PROB	2.524	n/a	n/a	-999	15	[1, 2, 7]	20.0	FR1	2	R1066P
2067.497	6.685	1146920	PROB	6.654	n/a	n/a	-999	15	[3, 8, 7]	18.0	FR1	2	R1066P
2074.182	2.134	1150263	PROB	2.113	n/a	n/a	-999	15	[8, 8, 5]	21.0	FR1	2	R1066P
2076.316	2.324	1151330	PROB	2.324	n/a	n/a	-999	15	[8, 3, 9]	2.0	FR1	2	R1066P
2078.64	0.011	1152492	STOP	n/a	n/a	n/a	-999	15	[-999, -999, -999]	n/a	FR1	2	R1066P
2078.651	1.199	1152497	DISTRACT_END	n/a	n/a	n/a	-999	15	[0, 0, 0]	n/a	FR1	2	R1066P
2079.85	0.681	1153097	REC_START	n/a	n/a	n/a	-999	15	[0, 0, 0]	n/a	FR1	2	R1066P
2080.531	0.305	1153437	REC_WORD_VV	0.681	n/a	<>	-999	15	[0, 0, 0]	n/a	FR1	2	R1066P
2080.836	0.937	1153590	REC_WORD	0.986	n/a	FOX	3	15	[0, 0, 0]	n/a	FR1	2	R1066P
2081.773	0.977	1154058	REC_WORD	1.923	n/a	EAT	-999	15	[0, 0, 0]	n/a	FR1	2	R1066P
2082.75	1.146	1154546	REC_WORD	2.9	n/a	EEL	4	15	[0, 0, 0]	n/a	FR1	2	R1066P
2083.896	6.905	1155119	REC_WORD	4.046	n/a	MOUTH	5	15	[0, 0, 0]	n/a	FR1	2	R1066P
2090.801	19.064	1158572	REC_WORD	10.951	n/a	SMILE	-999	15	[0, 0, 0]	n/a	FR1	2	R1066P
2109.865	97.875	1168103	REC_END	n/a	n/a	n/a	-999	15	[0, 0, 0]	n/a	FR1	2	R1066P
2207.74	10.0	1217038	COUNTDOWN_START	n/a	n/a	n/a	-999	16	[0, 0, 0]	n/a	FR1	2	R1066P
2207.741	10.427	1217039	TRIAL	n/a	n/a	n/a	-999	16	[0, 0, 0]	n/a	FR1	2	R1066P
2218.168	0.008	1222252	COUNTDOWN_END	n/a	n/a	n/a	-999	16	[0, 0, 0]	n/a	FR1	2	R1066P
2218.176	1.6	1222256	ORIENT	n/a	n/a	n/a	-999	16	[0, 0, 0]	n/a	FR1	2	R1066P
2220.576	1.6	1223456	WORD	n/a	wordpools/wordpool_EN.txt	BAT	1	16	[0, 0, 0]	n/a	FR1	2	R1066P
2223.01	1.6	1224673	WORD	n/a	wordpools/wordpool_EN.txt	FLEA	2	16	[0, 0, 0]	n/a	FR1	2	R1066P
2225.41	1.6	1225873	WORD	n/a	wordpools/wordpool_EN.txt	NEST	3	16	[0, 0, 0]	n/a	FR1	2	R1066P
2227.894	1.6	1227115	WORD	n/a	wordpools/wordpool_EN.txt	WHALE	4	16	[0, 0, 0]	n/a	FR1	2	R1066P
2230.378	1.6	1228357	WORD	n/a	wordpools/wordpool_EN.txt	HORN	5	16	[0, 0, 0]	n/a	FR1	2	R1066P
2232.995	1.6	1229665	WORD	n/a	wordpools/wordpool_EN.txt	PIG	6	16	[0, 0, 0]	n/a	FR1	2	R1066P
2235.579	1.6	1230957	WORD	n/a	wordpools/wordpool_EN.txt	ANT	7	16	[0, 0, 0]	n/a	FR1	2	R1066P
2238.063	1.6	1232199	WORD	n/a	wordpools/wordpool_EN.txt	SNAIL	8	16	[0, 0, 0]	n/a	FR1	2	R1066P
2240.563	1.6	1233449	WORD	n/a	wordpools/wordpool_EN.txt	TAIL	9	16	[0, 0, 0]	n/a	FR1	2	R1066P
2243.097	1.6	1234716	WORD	n/a	wordpools/wordpool_EN.txt	WORM	10	16	[0, 0, 0]	n/a	FR1	2	R1066P
2245.665	1.6	1236000	WORD	n/a	wordpools/wordpool_EN.txt	BALL	11	16	[0, 0, 0]	n/a	FR1	2	R1066P
2248.198	1.6	1237266	WORD	n/a	wordpools/wordpool_EN.txt	BEE	12	16	[0, 0, 0]	n/a	FR1	2	R1066P
2249.815	0.001	1238075	DISTRACT_START	n/a	n/a	n/a	-999	16	[0, 0, 0]	n/a	FR1	2	R1066P
2249.816	0.016	1238075	START	n/a	n/a	n/a	-999	16	[-999, -999, -999]	n/a	FR1	2	R1066P
2249.832	2.167	1238083	PROB	2.143	n/a	n/a	-999	16	[3, 3, 1]	7.0	FR1	2	R1066P
2251.999	2.0	1239167	PROB	1.969	n/a	n/a	-999	16	[7, 2, 6]	15.0	FR1	2	R1066P
2253.999	2.917	1240166	PROB	2.896	n/a	n/a	-999	16	[9, 4, 3]	16.0	FR1	2	R1066P
2256.916	2.134	1241625	PROB	2.108	n/a	n/a	-999	16	[7, 5, 8]	20.0	FR1	2	R1066P
2259.05	1.684	1242692	PROB	1.661	n/a	n/a	-999	16	[5, 1, 8]	14.0	FR1	2	R1066P
2260.734	2.317	1243534	PROB	2.29	n/a	n/a	-999	16	[3, 3, 7]	13.0	FR1	2	R1066P
2263.051	2.684	1244692	PROB	2.661	n/a	n/a	-999	16	[8, 2, 8]	18.0	FR1	2	R1066P
2265.735	3.8	1246034	PROB	3.768	n/a	n/a	-999	16	[1, 8, 3]	12.0	FR1	2	R1066P
2269.535	2.545	1247934	PROB	2.545	n/a	n/a	-999	16	[2, 3, 3]	8.0	FR1	2	R1066P
2272.08	0.006	1249207	STOP	n/a	n/a	n/a	-999	16	[-999, -999, -999]	n/a	FR1	2	R1066P
2272.086	1.134	1249210	DISTRACT_END	n/a	n/a	n/a	-999	16	[0, 0, 0]	n/a	FR1	2	R1066P
2273.22	0.925	1249776	REC_START	n/a	n/a	n/a	-999	16	[0, 0, 0]	n/a	FR1	2	R1066P
2274.145	0.629	1250239	REC_WORD_VV	0.925	n/a	<>	-999	16	[0, 0, 0]	n/a	FR1	2	R1066P
2274.774	0.542	1250553	REC_WORD	1.554	n/a	WHALE	4	16	[0, 0, 0]	n/a	FR1	2	R1066P
2275.316	0.719	1250824	REC_WORD	2.096	n/a	ANT	7	16	[0, 0, 0]	n/a	FR1	2	R1066P
2276.035	2.599	1251184	REC_WORD	2.815	n/a	FLEA	2	16	[0, 0, 0]	n/a	FR1	2	R1066P
2278.634	4.045	1252483	REC_WORD_VV	5.414	n/a	<>	-999	16	[0, 0, 0]	n/a	FR1	2	R1066P
2282.679	7.785	1254506	REC_WORD	9.459	n/a	ZOO	-999	16	[0, 0, 0]	n/a	FR1	2	R1066P
2290.464	12.766	1258398	REC_WORD	17.244	n/a	ANT	7	16	[0, 0, 0]	n/a	FR1	2	R1066P
2303.23	3.579	1264781	REC_END	n/a	n/a	n/a	-999	16	[0, 0, 0]	n/a	FR1	2	R1066P
2306.809	0.0	1266570	TRIAL	n/a	n/a	n/a	-999	17	[0, 0, 0]	n/a	FR1	2	R1066P
2306.809	10.0	1266570	COUNTDOWN_START	n/a	n/a	n/a	-999	17	[0, 0, 0]	n/a	FR1	2	R1066P
2317.237	0.007	1271784	COUNTDOWN_END	n/a	n/a	n/a	-999	17	[0, 0, 0]	n/a	FR1	2	R1066P
2317.244	1.6	1271787	ORIENT	n/a	n/a	n/a	-999	17	[0, 0, 0]	n/a	FR1	2	R1066P
2319.695	1.6	1273013	WORD	n/a	wordpools/wordpool_EN.txt	SPARK	1	17	[0, 0, 0]	n/a	FR1	2	R1066P
2322.262	1.6	1274296	WORD	n/a	wordpools/wordpool_EN.txt	SEAL	2	17	[0, 0, 0]	n/a	FR1	2	R1066P
2324.729	1.6	1275530	WORD	n/a	wordpools/wordpool_EN.txt	THREAD	3	17	[0, 0, 0]	n/a	FR1	2	R1066P
2327.313	1.6	1276822	WORD	n/a	wordpools/wordpool_EN.txt	DITCH	4	17	[0, 0, 0]	n/a	FR1	2	R1066P
2329.747	1.6	1278039	WORD	n/a	wordpools/wordpool_EN.txt	FLAG	5	17	[0, 0, 0]	n/a	FR1	2	R1066P
2332.147	1.6	1279238	WORD	n/a	wordpools/wordpool_EN.txt	SAIL	6	17	[0, 0, 0]	n/a	FR1	2	R1066P
2334.714	1.6	1280522	WORD	n/a	wordpools/wordpool_EN.txt	TANK	7	17	[0, 0, 0]	n/a	FR1	2	R1066P
2337.281	1.6	1281805	WORD	n/a	wordpools/wordpool_EN.txt	TOY	8	17	[0, 0, 0]	n/a	FR1	2	R1066P
2339.882	1.6	1283106	WORD	n/a	wordpools/wordpool_EN.txt	GRASS	9	17	[0, 0, 0]	n/a	FR1	2	R1066P
2342.516	1.6	1284423	WORD	n/a	wordpools/wordpool_EN.txt	SEA	10	17	[0, 0, 0]	n/a	FR1	2	R1066P
2345.116	1.6	1285723	WORD	n/a	wordpools/wordpool_EN.txt	SHIP	11	17	[0, 0, 0]	n/a	FR1	2	R1066P
2347.716	1.6	1287023	WORD	n/a	wordpools/wordpool_EN.txt	PIN	12	17	[0, 0, 0]	n/a	FR1	2	R1066P
2349.334	0.0	1287831	DISTRACT_START	n/a	n/a	n/a	-999	17	[0, 0, 0]	n/a	FR1	2	R1066P
2349.334	0.016	1287831	START	n/a	n/a	n/a	-999	17	[-999, -999, -999]	n/a	FR1	2	R1066P
2349.35	2.884	1287839	PROB	2.857	n/a	n/a	-999	17	[2, 1, 7]	10.0	FR1	2	R1066P
2352.234	4.134	1289281	PROB	4.102	n/a	n/a	-999	17	[6, 7, 9]	23.0	FR1	2	R1066P
2356.368	2.401	1291348	PROB	2.367	n/a	n/a	-999	17	[4, 2, 6]	12.0	FR1	2	R1066P
2358.769	1.834	1292549	PROB	1.798	n/a	n/a	-999	17	[8, 6, 7]	21.0	FR1	2	R1066P
2360.603	2.2	1293466	PROB	2.172	n/a	n/a	-999	17	[8, 7, 6]	21.0	FR1	2	R1066P
2362.803	2.95	1294566	PROB	2.924	n/a	n/a	-999	17	[2, 2, 4]	8.0	FR1	2	R1066P
2365.753	2.667	1296041	PROB	2.639	n/a	n/a	-999	17	[4, 6, 9]	19.0	FR1	2	R1066P
2368.42	2.899	1297374	PROB	2.899	n/a	n/a	-999	17	[4, 7, 2]	14.0	FR1	2	R1066P
2371.319	0.019	1298823	STOP	n/a	n/a	n/a	-999	17	[-999, -999, -999]	n/a	FR1	2	R1066P
2371.338	1.084	1298833	DISTRACT_END	n/a	n/a	n/a	-999	17	[0, 0, 0]	n/a	FR1	2	R1066P
2372.422	1.027	1299375	REC_START	n/a	n/a	n/a	-999	17	[0, 0, 0]	n/a	FR1	2	R1066P
2373.449	0.41	1299888	REC_WORD_VV	1.027	n/a	<>	-999	17	[0, 0, 0]	n/a	FR1	2	R1066P
2373.859	1.004	1300093	REC_WORD	1.437	n/a	SEAL	2	17	[0, 0, 0]	n/a	FR1	2	R1066P
2374.863	1.162	1300595	REC_WORD	2.441	n/a	DITCH	4	17	[0, 0, 0]	n/a	FR1	2	R1066P
2376.025	0.619	1301176	REC_WORD	3.603	n/a	BALL	-999	17	[0, 0, 0]	n/a	FR1	2	R1066P
2376.644	1.83	1301486	REC_WORD	4.222	n/a	TOY	8	17	[0, 0, 0]	n/a	FR1	2	R1066P
2378.474	1.898	1302401	REC_WORD	6.052	n/a	FLAG	5	17	[0, 0, 0]	n/a	FR1	2	R1066P
2380.372	1.712	1303350	REC_WORD	7.95	n/a	SEA	10	17	[0, 0, 0]	n/a	FR1	2	R1066P
2382.084	20.347	1304206	REC_WORD	9.662	n/a	AIR	-999	17	[0, 0, 0]	n/a	FR1	2	R1066P
2402.431	2.73	1314379	REC_END	n/a	n/a	n/a	-999	17	[0, 0, 0]	n/a	FR1	2	R1066P
2405.161	10.0	1315744	COUNTDOWN_START	n/a	n/a	n/a	-999	18	[0, 0, 0]	n/a	FR1	2	R1066P
2405.161	10.428	1315744	TRIAL	n/a	n/a	n/a	-999	18	[0, 0, 0]	n/a	FR1	2	R1066P
2415.589	0.007	1320957	COUNTDOWN_END	n/a	n/a	n/a	-999	18	[0, 0, 0]	n/a	FR1	2	R1066P
2415.596	1.6	1320961	ORIENT	n/a	n/a	n/a	-999	18	[0, 0, 0]	n/a	FR1	2	R1066P
2418.213	1.6	1322269	WORD	n/a	wordpools/wordpool_EN.txt	MOON	1	18	[0, 0, 0]	n/a	FR1	2	R1066P
2420.797	1.6	1323561	WORD	n/a	wordpools/wordpool_EN.txt	GRAPE	2	18	[0, 0, 0]	n/a	FR1	2	R1066P
2423.397	1.6	1324861	WORD	n/a	wordpools/wordpool_EN.txt	ICE	3	18	[0, 0, 0]	n/a	FR1	2	R1066P
2425.948	1.6	1326136	WORD	n/a	wordpools/wordpool_EN.txt	PLANE	4	18	[0, 0, 0]	n/a	FR1	2	R1066P
2428.498	1.6	1327411	WORD	n/a	wordpools/wordpool_EN.txt	JET	5	18	[0, 0, 0]	n/a	FR1	2	R1066P
2431.016	1.6	1328670	WORD	n/a	wordpools/wordpool_EN.txt	CAPE	6	18	[0, 0, 0]	n/a	FR1	2	R1066P
2433.583	1.6	1329954	WORD	n/a	wordpools/wordpool_EN.txt	SLUSH	7	18	[0, 0, 0]	n/a	FR1	2	R1066P
2436.166	1.6	1331245	WORD	n/a	wordpools/wordpool_EN.txt	ROCK	8	18	[0, 0, 0]	n/a	FR1	2	R1066P
2438.784	1.6	1332554	WORD	n/a	wordpools/wordpool_EN.txt	DOG	9	18	[0, 0, 0]	n/a	FR1	2	R1066P
2441.351	1.6	1333838	WORD	n/a	wordpools/wordpool_EN.txt	STAR	10	18	[0, 0, 0]	n/a	FR1	2	R1066P
2443.901	1.6	1335113	WORD	n/a	wordpools/wordpool_EN.txt	PRINCE	11	18	[0, 0, 0]	n/a	FR1	2	R1066P
2446.485	1.6	1336404	WORD	n/a	wordpools/wordpool_EN.txt	FISH	12	18	[0, 0, 0]	n/a	FR1	2	R1066P
2448.102	0.001	1337213	DISTRACT_START	n/a	n/a	n/a	-999	18	[0, 0, 0]	n/a	FR1	2	R1066P
2448.103	0.016	1337213	START	n/a	n/a	n/a	-999	18	[-999, -999, -999]	n/a	FR1	2	R1066P
2448.119	2.217	1337221	PROB	2.193	n/a	n/a	-999	18	[6, 8, 7]	21.0	FR1	2	R1066P
2450.336	3.667	1338330	PROB	3.639	n/a	n/a	-999	18	[4, 7, 7]	18.0	FR1	2	R1066P
2454.003	3.317	1340163	PROB	3.284	n/a	n/a	-999	18	[3, 1, 5]	81.0	FR1	2	R1066P
2457.32	4.518	1341822	PROB	4.496	n/a	n/a	-999	18	[4, 7, 2]	13.0	FR1	2	R1066P
2461.838	4.134	1344081	PROB	4.105	n/a	n/a	-999	18	[8, 6, 6]	20.0	FR1	2	R1066P
2465.972	2.179	1346147	PROB	2.179	n/a	n/a	-999	18	[3, 8, 9]	20.0	FR1	2	R1066P
2468.151	0.005	1347237	STOP	n/a	n/a	n/a	-999	18	[-999, -999, -999]	n/a	FR1	2	R1066P
2468.156	1.217	1347239	DISTRACT_END	n/a	n/a	n/a	-999	18	[0, 0, 0]	n/a	FR1	2	R1066P
2469.373	4.377	1347848	REC_START	n/a	n/a	n/a	-999	18	[0, 0, 0]	n/a	FR1	2	R1066P
2473.75	0.361	1350036	REC_WORD_VV	4.377	n/a	<>	-999	18	[0, 0, 0]	n/a	FR1	2	R1066P
2474.111	1.896	1350217	REC_WORD	4.738	n/a	SLUSH	7	18	[0, 0, 0]	n/a	FR1	2	R1066P
2476.007	1.687	1351165	REC_WORD	6.634	n/a	ICE	3	18	[0, 0, 0]	n/a	FR1	2	R1066P
2477.694	0.849	1352008	REC_WORD	8.321	n/a	ROCK	8	18	[0, 0, 0]	n/a	FR1	2	R1066P
2478.543	3.858	1352433	REC_WORD	9.17	n/a	DRINK	-999	18	[0, 0, 0]	n/a	FR1	2	R1066P
2482.401	7.764	1354362	REC_WORD	13.028	n/a	CAPE	6	18	[0, 0, 0]	n/a	FR1	2	R1066P
2490.165	9.222	1358243	REC_WORD	20.792	n/a	ICE	3	18	[0, 0, 0]	n/a	FR1	2	R1066P
2499.387	2.925	1362854	REC_END	n/a	n/a	n/a	-999	18	[0, 0, 0]	n/a	FR1	2	R1066P
2502.312	0.0	1364316	TRIAL	n/a	n/a	n/a	-999	19	[0, 0, 0]	n/a	FR1	2	R1066P
2502.312	10.0	1364316	COUNTDOWN_START	n/a	n/a	n/a	-999	19	[0, 0, 0]	n/a	FR1	2	R1066P
2512.74	0.008	1369530	COUNTDOWN_END	n/a	n/a	n/a	-999	19	[0, 0, 0]	n/a	FR1	2	R1066P
2512.748	1.6	1369534	ORIENT	n/a	n/a	n/a	-999	19	[0, 0, 0]	n/a	FR1	2	R1066P
2515.365	1.6	1370843	WORD	n/a	wordpools/wordpool_EN.txt	TOE	1	19	[0, 0, 0]	n/a	FR1	2	R1066P
2517.882	1.6	1372101	WORD	n/a	wordpools/wordpool_EN.txt	CHIN	2	19	[0, 0, 0]	n/a	FR1	2	R1066P
2520.366	1.6	1373343	WORD	n/a	wordpools/wordpool_EN.txt	WING	3	19	[0, 0, 0]	n/a	FR1	2	R1066P
2522.899	1.6	1374609	WORD	n/a	wordpools/wordpool_EN.txt	GLOVE	4	19	[0, 0, 0]	n/a	FR1	2	R1066P
2525.283	1.6	1375801	WORD	n/a	wordpools/wordpool_EN.txt	NOSE	5	19	[0, 0, 0]	n/a	FR1	2	R1066P
2527.834	1.6	1377077	WORD	n/a	wordpools/wordpool_EN.txt	CAT	6	19	[0, 0, 0]	n/a	FR1	2	R1066P
2530.418	1.6	1378369	WORD	n/a	wordpools/wordpool_EN.txt	FUR	7	19	[0, 0, 0]	n/a	FR1	2	R1066P
2532.868	1.6	1379594	WORD	n/a	wordpools/wordpool_EN.txt	OAR	8	19	[0, 0, 0]	n/a	FR1	2	R1066P
2535.368	1.6	1380844	WORD	n/a	wordpools/wordpool_EN.txt	TREE	9	19	[0, 0, 0]	n/a	FR1	2	R1066P
2537.969	1.6	1382144	WORD	n/a	wordpools/wordpool_EN.txt	SHIELD	10	19	[0, 0, 0]	n/a	FR1	2	R1066P
2540.369	1.6	1383344	WORD	n/a	wordpools/wordpool_EN.txt	ROPE	11	19	[0, 0, 0]	n/a	FR1	2	R1066P
2542.987	1.6	1384653	WORD	n/a	wordpools/wordpool_EN.txt	BLOOM	12	19	[0, 0, 0]	n/a	FR1	2	R1066P
2544.604	0.001	1385461	DISTRACT_START	n/a	n/a	n/a	-999	19	[0, 0, 0]	n/a	FR1	2	R1066P
2544.605	0.016	1385462	START	n/a	n/a	n/a	-999	19	[-999, -999, -999]	n/a	FR1	2	R1066P
2544.621	2.716	1385470	PROB	2.682	n/a	n/a	-999	19	[7, 4, 9]	20.0	FR1	2	R1066P
2547.337	2.851	1386828	PROB	2.83	n/a	n/a	-999	19	[6, 2, 6]	14.0	FR1	2	R1066P
2550.188	2.017	1388253	PROB	1.995	n/a	n/a	-999	19	[8, 6, 7]	21.0	FR1	2	R1066P
2552.205	3.418	1389262	PROB	3.395	n/a	n/a	-999	19	[7, 8, 9]	24.0	FR1	2	R1066P
2555.623	2.383	1390971	PROB	2.353	n/a	n/a	-999	19	[4, 2, 9]	15.0	FR1	2	R1066P
2558.006	3.217	1392162	PROB	3.193	n/a	n/a	-999	19	[9, 5, 7]	21.0	FR1	2	R1066P
2561.223	2.934	1393770	PROB	2.912	n/a	n/a	-999	19	[4, 6, 2]	12.0	FR1	2	R1066P
2564.157	2.274	1395237	PROB	2.274	n/a	n/a	-999	19	[6, 8, 8]	20.0	FR1	2	R1066P
2566.431	0.01	1396374	STOP	n/a	n/a	n/a	-999	19	[-999, -999, -999]	n/a	FR1	2	R1066P
2566.441	1.051	1396379	DISTRACT_END	n/a	n/a	n/a	-999	19	[0, 0, 0]	n/a	FR1	2	R1066P
2567.492	1.163	1396905	REC_START	n/a	n/a	n/a	-999	19	[0, 0, 0]	n/a	FR1	2	R1066P
2568.655	0.435	1397486	REC_WORD_VV	1.163	n/a	<>	-999	19	[0, 0, 0]	n/a	FR1	2	R1066P
2569.09	0.621	1397704	REC_WORD	1.598	n/a	TOE	1	19	[0, 0, 0]	n/a	FR1	2	R1066P
2569.711	0.865	1398014	REC_WORD	2.219	n/a	CHIN	2	19	[0, 0, 0]	n/a	FR1	2	R1066P
2570.576	0.857	1398447	REC_WORD	3.084	n/a	NOSE	5	19	[0, 0, 0]	n/a	FR1	2	R1066P
2571.433	0.812	1398875	REC_WORD	3.941	n/a	CAT	6	19	[0, 0, 0]	n/a	FR1	2	R1066P
2572.245	7.94	1399281	REC_WORD	4.753	n/a	FUR	7	19	[0, 0, 0]	n/a	FR1	2	R1066P
2580.185	0.357	1403251	REC_WORD_VV	12.693	n/a	<>	-999	19	[0, 0, 0]	n/a	FR1	2	R1066P
2580.542	0.604	1403429	REC_WORD	13.05	n/a	CHIN	2	19	[0, 0, 0]	n/a	FR1	2	R1066P
2581.146	16.356	1403731	REC_WORD_VV	13.654	n/a	<>	-999	19	[0, 0, 0]	n/a	FR1	2	R1066P
2597.502	42.953	1411909	REC_END	n/a	n/a	n/a	-999	19	[0, 0, 0]	n/a	FR1	2	R1066P
2640.455	0.0	1433384	TRIAL	n/a	n/a	n/a	-999	20	[0, 0, 0]	n/a	FR1	2	R1066P
2640.455	10.0	1433384	COUNTDOWN_START	n/a	n/a	n/a	-999	20	[0, 0, 0]	n/a	FR1	2	R1066P
2650.883	0.007	1438598	COUNTDOWN_END	n/a	n/a	n/a	-999	20	[0, 0, 0]	n/a	FR1	2	R1066P
2650.89	1.6	1438602	ORIENT	n/a	n/a	n/a	-999	20	[0, 0, 0]	n/a	FR1	2	R1066P
2653.324	1.6	1439819	WORD	n/a	wordpools/wordpool_EN.txt	FOAM	1	20	[0, 0, 0]	n/a	FR1	2	R1066P
2655.824	1.6	1441068	WORD	n/a	wordpools/wordpool_EN.txt	PEARL	2	20	[0, 0, 0]	n/a	FR1	2	R1066P
2658.408	1.6	1442360	WORD	n/a	wordpools/wordpool_EN.txt	PEACH	3	20	[0, 0, 0]	n/a	FR1	2	R1066P
2660.892	1.6	1443602	WORD	n/a	wordpools/wordpool_EN.txt	BEAN	4	20	[0, 0, 0]	n/a	FR1	2	R1066P
2663.426	1.6	1444869	WORD	n/a	wordpools/wordpool_EN.txt	JAR	5	20	[0, 0, 0]	n/a	FR1	2	R1066P
2665.943	1.6	1446128	WORD	n/a	wordpools/wordpool_EN.txt	DESK	6	20	[0, 0, 0]	n/a	FR1	2	R1066P
2668.343	1.6	1447328	WORD	n/a	wordpools/wordpool_EN.txt	SLIME	7	20	[0, 0, 0]	n/a	FR1	2	R1066P
2670.877	1.6	1448595	WORD	n/a	wordpools/wordpool_EN.txt	CUP	8	20	[0, 0, 0]	n/a	FR1	2	R1066P
2673.294	1.6	1449803	WORD	n/a	wordpools/wordpool_EN.txt	HOOK	9	20	[0, 0, 0]	n/a	FR1	2	R1066P
2675.845	1.6	1451078	WORD	n/a	wordpools/wordpool_EN.txt	SOUP	10	20	[0, 0, 0]	n/a	FR1	2	R1066P
2678.445	1.6	1452378	WORD	n/a	wordpools/wordpool_EN.txt	STOOL	11	20	[0, 0, 0]	n/a	FR1	2	R1066P
2680.946	1.6	1453629	WORD	n/a	wordpools/wordpool_EN.txt	FRUIT	12	20	[0, 0, 0]	n/a	FR1	2	R1066P
2682.563	0.001	1454437	DISTRACT_START	n/a	n/a	n/a	-999	20	[0, 0, 0]	n/a	FR1	2	R1066P
2682.564	0.015	1454438	START	n/a	n/a	n/a	-999	20	[-999, -999, -999]	n/a	FR1	2	R1066P
2682.579	3.568	1454445	PROB	3.532	n/a	n/a	-999	20	[1, 3, 2]	6.0	FR1	2	R1066P
2686.147	3.15	1456229	PROB	3.125	n/a	n/a	-999	20	[5, 9, 2]	16.0	FR1	2	R1066P
2689.297	2.201	1457804	PROB	2.174	n/a	n/a	-999	20	[6, 6, 2]	21.0	FR1	2	R1066P
2691.498	3.2	1458905	PROB	3.174	n/a	n/a	-999	20	[6, 5, 1]	13.0	FR1	2	R1066P
2694.698	2.034	1460504	PROB	2.013	n/a	n/a	-999	20	[5, 6, 9]	20.0	FR1	2	R1066P
2696.732	3.184	1461521	PROB	3.163	n/a	n/a	-999	20	[2, 2, 5]	9.0	FR1	2	R1066P
2699.916	3.251	1463113	PROB	3.251	n/a	n/a	-999	20	[5, 6, 5]	16.0	FR1	2	R1066P
2703.167	0.016	1464739	STOP	n/a	n/a	n/a	-999	20	[-999, -999, -999]	n/a	FR1	2	R1066P
2703.183	1.134	1464747	DISTRACT_END	n/a	n/a	n/a	-999	20	[0, 0, 0]	n/a	FR1	2	R1066P
2704.317	0.465	1465314	REC_START	n/a	n/a	n/a	-999	20	[0, 0, 0]	n/a	FR1	2	R1066P
2704.782	2.169	1465546	REC_WORD_VV	0.465	n/a	<>	-999	20	[0, 0, 0]	n/a	FR1	2	R1066P
2706.951	0.379	1466631	REC_WORD_VV	2.634	n/a	<>	-999	20	[0, 0, 0]	n/a	FR1	2	R1066P
2707.33	4.497	1466820	REC_WORD	3.013	n/a	FOAM	1	20	[0, 0, 0]	n/a	FR1	2	R1066P
2711.827	1.334	1469068	REC_WORD_VV	7.51	n/a	<>	-999	20	[0, 0, 0]	n/a	FR1	2	R1066P
2713.161	0.28	1469735	REC_WORD_VV	8.844	n/a	<>	-999	20	[0, 0, 0]	n/a	FR1	2	R1066P
2713.441	0.766	1469875	REC_WORD	9.124	n/a	CUP	8	20	[0, 0, 0]	n/a	FR1	2	R1066P
2714.207	1.59	1470258	REC_WORD	9.89	n/a	SOUP	10	20	[0, 0, 0]	n/a	FR1	2	R1066P
2715.797	10.352	1471053	REC_WORD	11.48	n/a	STOOL	11	20	[0, 0, 0]	n/a	FR1	2	R1066P
2726.149	8.182	1476229	REC_WORD	21.832	n/a	STOOL	11	20	[0, 0, 0]	n/a	FR1	2	R1066P
2734.331	4.359	1480320	REC_END	n/a	n/a	n/a	-999	20	[0, 0, 0]	n/a	FR1	2	R1066P
2738.69	0.0	1482499	TRIAL	n/a	n/a	n/a	-999	21	[0, 0, 0]	n/a	FR1	2	R1066P
2738.69	10.0	1482499	COUNTDOWN_START	n/a	n/a	n/a	-999	21	[0, 0, 0]	n/a	FR1	2	R1066P
2749.118	0.007	1487713	COUNTDOWN_END	n/a	n/a	n/a	-999	21	[0, 0, 0]	n/a	FR1	2	R1066P
2749.125	1.6	1487717	ORIENT	n/a	n/a	n/a	-999	21	[0, 0, 0]	n/a	FR1	2	R1066P
2751.526	1.6	1488917	WORD	n/a	wordpools/wordpool_EN.txt	JUICE	1	21	[0, 0, 0]	n/a	FR1	2	R1066P
2753.976	1.6	1490142	WORD	n/a	wordpools/wordpool_EN.txt	CORN	2	21	[0, 0, 0]	n/a	FR1	2	R1066P
2756.36	1.6	1491334	WORD	n/a	wordpools/wordpool_EN.txt	CAGE	3	21	[0, 0, 0]	n/a	FR1	2	R1066P
2758.86	1.6	1492584	WORD	n/a	wordpools/wordpool_EN.txt	MUG	4	21	[0, 0, 0]	n/a	FR1	2	R1066P
2761.344	1.6	1493826	WORD	n/a	wordpools/wordpool_EN.txt	HORSE	5	21	[0, 0, 0]	n/a	FR1	2	R1066P
2763.811	1.6	1495059	WORD	n/a	wordpools/wordpool_EN.txt	ARM	6	21	[0, 0, 0]	n/a	FR1	2	R1066P
2766.212	1.6	1496260	WORD	n/a	wordpools/wordpool_EN.txt	STEAK	7	21	[0, 0, 0]	n/a	FR1	2	R1066P
2768.696	1.6	1497501	WORD	n/a	wordpools/wordpool_EN.txt	TOAST	8	21	[0, 0, 0]	n/a	FR1	2	R1066P
2771.246	1.6	1498776	WORD	n/a	wordpools/wordpool_EN.txt	CAVE	9	21	[0, 0, 0]	n/a	FR1	2	R1066P
2773.681	1.6	1499994	WORD	n/a	wordpools/wordpool_EN.txt	GLASS	10	21	[0, 0, 0]	n/a	FR1	2	R1066P
2776.164	1.6	1501235	WORD	n/a	wordpools/wordpool_EN.txt	HOOF	11	21	[0, 0, 0]	n/a	FR1	2	R1066P
2778.581	1.6	1502444	WORD	n/a	wordpools/wordpool_EN.txt	PLATE	12	21	[0, 0, 0]	n/a	FR1	2	R1066P
2780.198	0.0	1503252	DISTRACT_START	n/a	n/a	n/a	-999	21	[0, 0, 0]	n/a	FR1	2	R1066P
2780.198	0.016	1503252	START	n/a	n/a	n/a	-999	21	[-999, -999, -999]	n/a	FR1	2	R1066P
2780.214	3.318	1503260	PROB	3.29	n/a	n/a	-999	21	[5, 9, 6]	20.0	FR1	2	R1066P
2783.532	2.134	1504919	PROB	2.108	n/a	n/a	-999	21	[5, 1, 3]	9.0	FR1	2	R1066P
2785.666	1.967	1505986	PROB	1.942	n/a	n/a	-999	21	[2, 3, 7]	12.0	FR1	2	R1066P
2787.633	1.699	1506969	PROB	1.67	n/a	n/a	-999	21	[2, 5, 3]	19.0	FR1	2	R1066P
2789.332	5.185	1507819	PROB	5.164	n/a	n/a	-999	21	[9, 2, 9]	20.0	FR1	2	R1066P
2794.517	3.351	1510411	PROB	3.315	n/a	n/a	-999	21	[7, 2, 7]	16.0	FR1	2	R1066P
2797.868	4.251	1512087	PROB	4.251	n/a	n/a	-999	21	[6, 8, 5]	19.0	FR1	2	R1066P
2802.119	0.016	1514212	STOP	n/a	n/a	n/a	-999	21	[-999, -999, -999]	n/a	FR1	2	R1066P
2802.135	1.084	1514220	DISTRACT_END	n/a	n/a	n/a	-999	21	[0, 0, 0]	n/a	FR1	2	R1066P
2803.219	0.819	1514762	REC_START	n/a	n/a	n/a	-999	21	[0, 0, 0]	n/a	FR1	2	R1066P
2804.038	0.476	1515172	REC_WORD_VV	0.819	n/a	<>	-999	21	[0, 0, 0]	n/a	FR1	2	R1066P
2804.514	0.878	1515410	REC_WORD	1.295	n/a	JUICE	1	21	[0, 0, 0]	n/a	FR1	2	R1066P
2805.392	0.829	1515849	REC_WORD	2.173	n/a	MUG	4	21	[0, 0, 0]	n/a	FR1	2	R1066P
2806.221	0.974	1516263	REC_WORD	3.002	n/a	HORSE	5	21	[0, 0, 0]	n/a	FR1	2	R1066P
2807.195	0.984	1516750	REC_WORD	3.976	n/a	ARM	6	21	[0, 0, 0]	n/a	FR1	2	R1066P
2808.179	25.053	1517242	REC_WORD	4.96	n/a	HOOF	11	21	[0, 0, 0]	n/a	FR1	2	R1066P
2833.232	6.527	1529768	REC_END	n/a	n/a	n/a	-999	21	[0, 0, 0]	n/a	FR1	2	R1066P
2839.759	0.0	1533031	TRIAL	n/a	n/a	n/a	-999	22	[0, 0, 0]	n/a	FR1	2	R1066P
2839.759	10.0	1533031	COUNTDOWN_START	n/a	n/a	n/a	-999	22	[0, 0, 0]	n/a	FR1	2	R1066P
2850.187	0.007	1538245	COUNTDOWN_END	n/a	n/a	n/a	-999	22	[0, 0, 0]	n/a	FR1	2	R1066P
2850.194	1.6	1538248	ORIENT	n/a	n/a	n/a	-999	22	[0, 0, 0]	n/a	FR1	2	R1066P
2852.811	1.6	1539557	WORD	n/a	wordpools/wordpool_EN.txt	NAIL	1	22	[0, 0, 0]	n/a	FR1	2	R1066P
2855.328	1.6	1540815	WORD	n/a	wordpools/wordpool_EN.txt	PIT	2	22	[0, 0, 0]	n/a	FR1	2	R1066P
2857.779	1.6	1542041	WORD	n/a	wordpools/wordpool_EN.txt	FOOT	3	22	[0, 0, 0]	n/a	FR1	2	R1066P
2860.213	1.6	1543258	WORD	n/a	wordpools/wordpool_EN.txt	FACE	4	22	[0, 0, 0]	n/a	FR1	2	R1066P
2862.846	1.6	1544574	WORD	n/a	wordpools/wordpool_EN.txt	HILL	5	22	[0, 0, 0]	n/a	FR1	2	R1066P
2865.464	1.6	1545883	WORD	n/a	wordpools/wordpool_EN.txt	STICK	6	22	[0, 0, 0]	n/a	FR1	2	R1066P
2867.847	1.6	1547074	WORD	n/a	wordpools/wordpool_EN.txt	SOCK	7	22	[0, 0, 0]	n/a	FR1	2	R1066P
2870.364	1.6	1548333	WORD	n/a	wordpools/wordpool_EN.txt	DRESS	8	22	[0, 0, 0]	n/a	FR1	2	R1066P
2872.815	1.6	1549558	WORD	n/a	wordpools/wordpool_EN.txt	CONE	9	22	[0, 0, 0]	n/a	FR1	2	R1066P
2875.382	1.6	1550842	WORD	n/a	wordpools/wordpool_EN.txt	FLAME	10	22	[0, 0, 0]	n/a	FR1	2	R1066P
2877.833	1.6	1552067	WORD	n/a	wordpools/wordpool_EN.txt	BAG	11	22	[0, 0, 0]	n/a	FR1	2	R1066P
2880.25	1.6	1553276	WORD	n/a	wordpools/wordpool_EN.txt	FUDGE	12	22	[0, 0, 0]	n/a	FR1	2	R1066P
2881.867	0.001	1554084	DISTRACT_START	n/a	n/a	n/a	-999	22	[0, 0, 0]	n/a	FR1	2	R1066P
2881.868	0.015	1554085	START	n/a	n/a	n/a	-999	22	[-999, -999, -999]	n/a	FR1	2	R1066P
2881.883	2.718	1554092	PROB	2.684	n/a	n/a	-999	22	[3, 7, 2]	1.0	FR1	2	R1066P
2884.601	2.433	1555451	PROB	2.399	n/a	n/a	-999	22	[4, 8, 3]	15.0	FR1	2	R1066P
2887.034	3.018	1556667	PROB	2.998	n/a	n/a	-999	22	[9, 5, 8]	25.0	FR1	2	R1066P
2890.052	2.551	1558176	PROB	2.515	n/a	n/a	-999	22	[8, 4, 1]	13.0	FR1	2	R1066P
2892.603	1.566	1559452	PROB	1.532	n/a	n/a	-999	22	[2, 2, 2]	6.0	FR1	2	R1066P
2894.169	2.917	1560235	PROB	2.894	n/a	n/a	-999	22	[4, 6, 8]	18.0	FR1	2	R1066P
2897.086	2.717	1561693	PROB	2.689	n/a	n/a	-999	22	[9, 6, 5]	20.0	FR1	2	R1066P
2899.803	3.445	1563052	PROB	3.445	n/a	n/a	-999	22	[8, 5, 9]	22.0	FR1	2	R1066P
2903.248	0.006	1564774	STOP	n/a	n/a	n/a	-999	22	[-999, -999, -999]	n/a	FR1	2	R1066P
2903.254	1.201	1564777	DISTRACT_END	n/a	n/a	n/a	-999	22	[0, 0, 0]	n/a	FR1	2	R1066P
2904.455	1.098	1565377	REC_START	n/a	n/a	n/a	-999	22	[0, 0, 0]	n/a	FR1	2	R1066P
2905.553	5.054	1565926	REC_WORD_VV	1.098	n/a	<>	-999	22	[0, 0, 0]	n/a	FR1	2	R1066P
2910.607	1.398	1568453	REC_WORD	6.152	n/a	FOOT	3	22	[0, 0, 0]	n/a	FR1	2	R1066P
2912.005	22.46	1569152	REC_WORD	7.55	n/a	FACE	4	22	[0, 0, 0]	n/a	FR1	2	R1066P
2934.465	134.403	1580382	REC_END	n/a	n/a	n/a	-999	22	[0, 0, 0]	n/a	FR1	2	R1066P
3068.868	10.0	1647580	COUNTDOWN_START	n/a	n/a	n/a	-999	23	[0, 0, 0]	n/a	FR1	2	R1066P
3068.869	10.427	1647580	TRIAL	n/a	n/a	n/a	-999	23	[0, 0, 0]	n/a	FR1	2	R1066P
3079.296	0.008	1652793	COUNTDOWN_END	n/a	n/a	n/a	-999	23	[0, 0, 0]	n/a	FR1	2	R1066P
3079.304	1.6	1652797	ORIENT	n/a	n/a	n/a	-999	23	[0, 0, 0]	n/a	FR1	2	R1066P
3081.837	1.6	1654064	WORD	n/a	wordpools/wordpool_EN.txt	CROW	1	23	[0, 0, 0]	n/a	FR1	2	R1066P
3084.421	1.6	1655356	WORD	n/a	wordpools/wordpool_EN.txt	SOAP	2	23	[0, 0, 0]	n/a	FR1	2	R1066P
3087.005	1.6	1656648	WORD	n/a	wordpools/wordpool_EN.txt	RUG	3	23	[0, 0, 0]	n/a	FR1	2	R1066P
3089.439	1.6	1657865	WORD	n/a	wordpools/wordpool_EN.txt	SUIT	4	23	[0, 0, 0]	n/a	FR1	2	R1066P
3091.906	1.6	1659098	WORD	n/a	wordpools/wordpool_EN.txt	FAN	5	23	[0, 0, 0]	n/a	FR1	2	R1066P
3094.473	1.6	1660381	WORD	n/a	wordpools/wordpool_EN.txt	GOAT	6	23	[0, 0, 0]	n/a	FR1	2	R1066P
3097.04	1.6	1661665	WORD	n/a	wordpools/wordpool_EN.txt	RIB	7	23	[0, 0, 0]	n/a	FR1	2	R1066P
3099.591	1.6	1662940	WORD	n/a	wordpools/wordpool_EN.txt	BOOT	8	23	[0, 0, 0]	n/a	FR1	2	R1066P
3102.125	1.6	1664207	WORD	n/a	wordpools/wordpool_EN.txt	SHIRT	9	23	[0, 0, 0]	n/a	FR1	2	R1066P
3104.525	1.6	1665407	WORD	n/a	wordpools/wordpool_EN.txt	FENCE	10	23	[0, 0, 0]	n/a	FR1	2	R1066P
3107.059	1.6	1666674	WORD	n/a	wordpools/wordpool_EN.txt	BROOM	11	23	[0, 0, 0]	n/a	FR1	2	R1066P
3109.693	1.6	1667991	WORD	n/a	wordpools/wordpool_EN.txt	PANTS	12	23	[0, 0, 0]	n/a	FR1	2	R1066P
3111.31	0.001	1668800	DISTRACT_START	n/a	n/a	n/a	-999	23	[0, 0, 0]	n/a	FR1	2	R1066P
3111.311	0.015	1668800	START	n/a	n/a	n/a	-999	23	[-999, -999, -999]	n/a	FR1	2	R1066P
3111.326	2.817	1668808	PROB	2.793	n/a	n/a	-999	23	[8, 4, 1]	13.0	FR1	2	R1066P
3114.143	2.234	1670216	PROB	2.209	n/a	n/a	-999	23	[9, 6, 4]	19.0	FR1	2	R1066P
3116.377	2.334	1671333	PROB	2.31	n/a	n/a	-999	23	[1, 7, 2]	12.0	FR1	2	R1066P
3118.711	3.684	1672500	PROB	3.656	n/a	n/a	-999	23	[8, 5, 6]	19.0	FR1	2	R1066P
3122.395	2.584	1674342	PROB	2.557	n/a	n/a	-999	23	[4, 6, 1]	11.0	FR1	2	R1066P
3124.979	1.967	1675634	PROB	1.94	n/a	n/a	-999	23	[4, 2, 1]	7.0	FR1	2	R1066P
3126.946	2.267	1676617	PROB	2.237	n/a	n/a	-999	23	[4, 6, 4]	14.0	FR1	2	R1066P
3129.213	3.122	1677751	PROB	3.122	n/a	n/a	-999	23	[3, 5, 9]	17.0	FR1	2	R1066P
3132.335	0.012	1679311	STOP	n/a	n/a	n/a	-999	23	[-999, -999, -999]	n/a	FR1	2	R1066P
3132.347	1.067	1679317	DISTRACT_END	n/a	n/a	n/a	-999	23	[0, 0, 0]	n/a	FR1	2	R1066P
3133.414	0.467	1679851	REC_START	n/a	n/a	n/a	-999	23	[0, 0, 0]	n/a	FR1	2	R1066P
3133.881	0.335	1680084	REC_WORD_VV	0.467	n/a	<>	-999	23	[0, 0, 0]	n/a	FR1	2	R1066P
3134.216	0.684	1680252	REC_WORD	0.802	n/a	CROW	1	23	[0, 0, 0]	n/a	FR1	2	R1066P
3134.9	0.413	1680594	REC_WORD	1.486	n/a	RAT	-999	23	[0, 0, 0]	n/a	FR1	2	R1066P
3135.313	0.863	1680800	REC_WORD	1.899	n/a	SUIT	4	23	[0, 0, 0]	n/a	FR1	2	R1066P
3136.176	1.057	1681232	REC_WORD	2.762	n/a	PANTS	12	23	[0, 0, 0]	n/a	FR1	2	R1066P
3137.233	2.569	1681760	REC_WORD	3.819	n/a	SHIRT	9	23	[0, 0, 0]	n/a	FR1	2	R1066P
3139.802	2.668	1683045	REC_WORD	6.388	n/a	SUIT	4	23	[0, 0, 0]	n/a	FR1	2	R1066P
3142.47	0.806	1684379	REC_WORD	9.056	n/a	TOP	-999	23	[0, 0, 0]	n/a	FR1	2	R1066P
3143.276	7.172	1684782	REC_WORD_VV	9.862	n/a	<>	-999	23	[0, 0, 0]	n/a	FR1	2	R1066P
3150.448	4.86	1688367	REC_WORD	17.034	n/a	CROW	1	23	[0, 0, 0]	n/a	FR1	2	R1066P
3155.308	0.911	1690797	REC_WORD_VV	21.894	n/a	<>	-999	23	[0, 0, 0]	n/a	FR1	2	R1066P
3156.219	7.207	1691253	REC_WORD	22.805	n/a	RIB	7	23	[0, 0, 0]	n/a	FR1	2	R1066P
3163.426	4.478	1694856	REC_END	n/a	n/a	n/a	-999	23	[0, 0, 0]	n/a	FR1	2	R1066P
3167.904	0.0	1697095	TRIAL	n/a	n/a	n/a	-999	24	[0, 0, 0]	n/a	FR1	2	R1066P
3167.904	10.0	1697095	COUNTDOWN_START	n/a	n/a	n/a	-999	24	[0, 0, 0]	n/a	FR1	2	R1066P
3178.332	0.007	1702309	COUNTDOWN_END	n/a	n/a	n/a	-999	24	[0, 0, 0]	n/a	FR1	2	R1066P
3178.339	1.6	1702312	ORIENT	n/a	n/a	n/a	-999	24	[0, 0, 0]	n/a	FR1	2	R1066P
3180.756	1.6	1703521	WORD	n/a	wordpools/wordpool_EN.txt	VINE	1	24	[0, 0, 0]	n/a	FR1	2	R1066P
3183.34	1.6	1704813	WORD	n/a	wordpools/wordpool_EN.txt	EAR	2	24	[0, 0, 0]	n/a	FR1	2	R1066P
3185.907	1.6	1706096	WORD	n/a	wordpools/wordpool_EN.txt	FOOD	3	24	[0, 0, 0]	n/a	FR1	2	R1066P
3188.341	1.6	1707313	WORD	n/a	wordpools/wordpool_EN.txt	HEART	4	24	[0, 0, 0]	n/a	FR1	2	R1066P
3190.975	1.6	1708630	WORD	n/a	wordpools/wordpool_EN.txt	BED	5	24	[0, 0, 0]	n/a	FR1	2	R1066P
3193.525	1.6	1709905	WORD	n/a	wordpools/wordpool_EN.txt	HOSE	6	24	[0, 0, 0]	n/a	FR1	2	R1066P
3196.059	1.6	1711172	WORD	n/a	wordpools/wordpool_EN.txt	TRAIN	7	24	[0, 0, 0]	n/a	FR1	2	R1066P
3198.644	1.6	1712464	WORD	n/a	wordpools/wordpool_EN.txt	MOUSE	8	24	[0, 0, 0]	n/a	FR1	2	R1066P
3201.026	1.6	1713655	WORD	n/a	wordpools/wordpool_EN.txt	SMOKE	9	24	[0, 0, 0]	n/a	FR1	2	R1066P
3203.477	1.6	1714881	WORD	n/a	wordpools/wordpool_EN.txt	ROOM	10	24	[0, 0, 0]	n/a	FR1	2	R1066P
3205.877	1.6	1716081	WORD	n/a	wordpools/wordpool_EN.txt	MOOSE	11	24	[0, 0, 0]	n/a	FR1	2	R1066P
3208.428	1.6	1717356	WORD	n/a	wordpools/wordpool_EN.txt	CAKE	12	24	[0, 0, 0]	n/a	FR1	2	R1066P
3210.045	0.001	1718164	DISTRACT_START	n/a	n/a	n/a	-999	24	[0, 0, 0]	n/a	FR1	2	R1066P
3210.046	0.015	1718165	START	n/a	n/a	n/a	-999	24	[-999, -999, -999]	n/a	FR1	2	R1066P
3210.061	3.784	1718172	PROB	3.755	n/a	n/a	-999	24	[7, 9, 7]	23.0	FR1	2	R1066P
3213.845	2.151	1720064	PROB	2.13	n/a	n/a	-999	24	[9, 1, 3]	13.0	FR1	2	R1066P
3215.996	4.017	1721140	PROB	3.996	n/a	n/a	-999	24	[3, 8, 8]	19.0	FR1	2	R1066P
3220.013	2.334	1723148	PROB	2.307	n/a	n/a	-999	24	[5, 5, 4]	14.0	FR1	2	R1066P
3222.347	2.167	1724315	PROB	2.133	n/a	n/a	-999	24	[1, 9, 3]	13.0	FR1	2	R1066P
3224.514	2.001	1725399	PROB	1.965	n/a	n/a	-999	24	[3, 1, 2]	5.0	FR1	2	R1066P
3226.515	2.7	1726399	PROB	2.668	n/a	n/a	-999	24	[1, 2, 5]	8.0	FR1	2	R1066P
3229.215	3.409	1727749	PROB	3.409	n/a	n/a	-999	24	[8, 2, 5]	15.0	FR1	2	R1066P
3232.624	0.009	1729453	STOP	n/a	n/a	n/a	-999	24	[-999, -999, -999]	n/a	FR1	2	R1066P
3232.633	1.171	1729458	DISTRACT_END	n/a	n/a	n/a	-999	24	[0, 0, 0]	n/a	FR1	2	R1066P
3233.804	0.354	1730043	REC_START	n/a	n/a	n/a	-999	24	[0, 0, 0]	n/a	FR1	2	R1066P
3234.158	0.951	1730220	REC_WORD	0.354	n/a	SMOKE	9	24	[0, 0, 0]	n/a	FR1	2	R1066P
3235.109	0.58	1730696	REC_WORD	1.305	n/a	ROOM	10	24	[0, 0, 0]	n/a	FR1	2	R1066P
3235.689	0.727	1730986	REC_WORD	1.885	n/a	MOOSE	11	24	[0, 0, 0]	n/a	FR1	2	R1066P
3236.416	6.797	1731349	REC_WORD	2.612	n/a	CAKE	12	24	[0, 0, 0]	n/a	FR1	2	R1066P
3243.213	2.096	1734748	REC_WORD_VV	9.409	n/a	<>	-999	24	[0, 0, 0]	n/a	FR1	2	R1066P
3245.309	18.501	1735795	REC_WORD	11.505	n/a	SMILE	-999	24	[0, 0, 0]	n/a	FR1	2	R1066P
3263.81	21.85	1745046	REC_END	n/a	n/a	n/a	-999	24	[0, 0, 0]	n/a	FR1	2	R1066P
3285.66	0.0	1755970	TRIAL	n/a	n/a	n/a	-999	25	[0, 0, 0]	n/a	FR1	2	R1066P
3285.66	10.0	1755970	COUNTDOWN_START	n/a	n/a	n/a	-999	25	[0, 0, 0]	n/a	FR1	2	R1066P
3296.088	0.006	1761184	COUNTDOWN_END	n/a	n/a	n/a	-999	25	[0, 0, 0]	n/a	FR1	2	R1066P
3296.094	1.6	1761187	ORIENT	n/a	n/a	n/a	-999	25	[0, 0, 0]	n/a	FR1	2	R1066P
3298.495	1.6	1762387	WORD	n/a	wordpools/wordpool_EN.txt	RICE	1	25	[0, 0, 0]	n/a	FR1	2	R1066P
3300.962	1.6	1763621	WORD	n/a	wordpools/wordpool_EN.txt	EGG	2	25	[0, 0, 0]	n/a	FR1	2	R1066P
3303.496	1.6	1764887	WORD	n/a	wordpools/wordpool_EN.txt	CORD	3	25	[0, 0, 0]	n/a	FR1	2	R1066P
3305.913	1.6	1766096	WORD	n/a	wordpools/wordpool_EN.txt	NET	4	25	[0, 0, 0]	n/a	FR1	2	R1066P
3308.38	1.6	1767329	WORD	n/a	wordpools/wordpool_EN.txt	WAVE	5	25	[0, 0, 0]	n/a	FR1	2	R1066P
3310.93	1.6	1768604	WORD	n/a	wordpools/wordpool_EN.txt	POLE	6	25	[0, 0, 0]	n/a	FR1	2	R1066P
3313.414	1.6	1769846	WORD	n/a	wordpools/wordpool_EN.txt	PEA	7	25	[0, 0, 0]	n/a	FR1	2	R1066P
3315.815	1.6	1771047	WORD	n/a	wordpools/wordpool_EN.txt	TOAD	8	25	[0, 0, 0]	n/a	FR1	2	R1066P
3318.365	1.6	1772322	WORD	n/a	wordpools/wordpool_EN.txt	SHEET	9	25	[0, 0, 0]	n/a	FR1	2	R1066P
3320.832	1.6	1773555	WORD	n/a	wordpools/wordpool_EN.txt	CASH	10	25	[0, 0, 0]	n/a	FR1	2	R1066P
3323.383	1.6	1774830	WORD	n/a	wordpools/wordpool_EN.txt	HEN	11	25	[0, 0, 0]	n/a	FR1	2	R1066P
3325.783	1.6	1776030	WORD	n/a	wordpools/wordpool_EN.txt	COIN	12	25	[0, 0, 0]	n/a	FR1	2	R1066P
3327.4	0.001	1776839	DISTRACT_START	n/a	n/a	n/a	-999	25	[0, 0, 0]	n/a	FR1	2	R1066P
3327.401	0.016	1776839	START	n/a	n/a	n/a	-999	25	[-999, -999, -999]	n/a	FR1	2	R1066P
3327.417	2.85	1776847	PROB	2.822	n/a	n/a	-999	25	[2, 1, 2]	5.0	FR1	2	R1066P
3330.267	2.517	1778272	PROB	2.492	n/a	n/a	-999	25	[3, 3, 8]	14.0	FR1	2	R1066P
3332.784	2.118	1779531	PROB	2.095	n/a	n/a	-999	25	[3, 9, 1]	13.0	FR1	2	R1066P
3334.902	2.718	1780590	PROB	2.682	n/a	n/a	-999	25	[2, 9, 9]	10.0	FR1	2	R1066P
3337.62	3.549	1781949	PROB	3.523	n/a	n/a	-999	25	[3, 8, 3]	14.0	FR1	2	R1066P
3341.169	2.651	1783723	PROB	2.622	n/a	n/a	-999	25	[1, 8, 6]	20.0	FR1	2	R1066P
3343.82	4.043	1785048	PROB	4.043	n/a	n/a	-999	25	[6, 3, 8]	17.0	FR1	2	R1066P
3347.863	0.008	1787070	STOP	n/a	n/a	n/a	-999	25	[-999, -999, -999]	n/a	FR1	2	R1066P
3347.871	1.051	1787074	DISTRACT_END	n/a	n/a	n/a	-999	25	[0, 0, 0]	n/a	FR1	2	R1066P
3348.922	0.508	1787599	REC_START	n/a	n/a	n/a	-999	25	[0, 0, 0]	n/a	FR1	2	R1066P
3349.43	0.328	1787853	REC_WORD_VV	0.508	n/a	<>	-999	25	[0, 0, 0]	n/a	FR1	2	R1066P
3349.758	0.632	1788017	REC_WORD	0.836	n/a	RICE	1	25	[0, 0, 0]	n/a	FR1	2	R1066P
3350.39	0.929	1788333	REC_WORD	1.468	n/a	EGG	2	25	[0, 0, 0]	n/a	FR1	2	R1066P
3351.319	0.925	1788798	REC_WORD	2.397	n/a	HEN	11	25	[0, 0, 0]	n/a	FR1	2	R1066P
3352.244	1.107	1789260	REC_WORD	3.322	n/a	CORN	-999	25	[0, 0, 0]	n/a	FR1	2	R1066P
3353.351	25.581	1789814	REC_WORD	4.429	n/a	CASH	10	25	[0, 0, 0]	n/a	FR1	2	R1066P
3378.932	9.547	1802603	REC_END	n/a	n/a	n/a	-999	25	[0, 0, 0]	n/a	FR1	2	R1066P
3388.479	0.0	1807377	SESS_END	n/a	n/a	n/a	-999	25	[0, 0, 0]	n/a	FR1	2	R1066P
