onset	duration	sample	trial_type	response_time	stim_file	item_name	serialpos	list	test	answer	experiment	session	subject
0.0	87.074	17399	SESS_START	n/a	n/a	n/a	-999	-999	[0, 0, 0]	n/a	FR1	0	R1069M
87.074	10.0	60932	COUNTDOWN_START	n/a	n/a	n/a	-999	-999	[0, 0, 0]	n/a	FR1	0	R1069M
97.502	3.942	66146	COUNTDOWN_END	n/a	n/a	n/a	-999	-999	[0, 0, 0]	n/a	FR1	0	R1069M
101.444	1.6	68117	PRACTICE_WORD	n/a	n/a	ATTIC	1	-1	[0, 0, 0]	n/a	FR1	0	R1069M
103.844	1.6	69316	PRACTICE_WORD	n/a	n/a	CHEST	2	-1	[0, 0, 0]	n/a	FR1	0	R1069M
106.295	1.6	70542	PRACTICE_WORD	n/a	n/a	CAMEL	3	-1	[0, 0, 0]	n/a	FR1	0	R1069M
108.728	1.6	71758	PRACTICE_WORD	n/a	n/a	WATCH	4	-1	[0, 0, 0]	n/a	FR1	0	R1069M
111.279	1.6	73034	PRACTICE_WORD	n/a	n/a	FLOOD	5	-1	[0, 0, 0]	n/a	FR1	0	R1069M
113.663	1.6	74226	PRACTICE_WORD	n/a	n/a	RING	6	-1	[0, 0, 0]	n/a	FR1	0	R1069M
116.08	1.6	75434	PRACTICE_WORD	n/a	n/a	IRON	7	-1	[0, 0, 0]	n/a	FR1	0	R1069M
118.664	1.6	76726	PRACTICE_WORD	n/a	n/a	BEAM	8	-1	[0, 0, 0]	n/a	FR1	0	R1069M
121.081	1.6	77934	PRACTICE_WORD	n/a	n/a	COTTON	9	-1	[0, 0, 0]	n/a	FR1	0	R1069M
123.515	1.6	79151	PRACTICE_WORD	n/a	n/a	WAGON	10	-1	[0, 0, 0]	n/a	FR1	0	R1069M
126.132	1.6	80460	PRACTICE_WORD	n/a	n/a	TONGUE	11	-1	[0, 0, 0]	n/a	FR1	0	R1069M
128.532	1.6	81659	PRACTICE_WORD	n/a	n/a	RHINO	12	-1	[0, 0, 0]	n/a	FR1	0	R1069M
130.149	0.001	82468	PRACTICE_DISTRACT_START	n/a	n/a	n/a	-999	-1	[0, 0, 0]	n/a	FR1	0	R1069M
130.15	0.016	82468	START	n/a	n/a	n/a	-999	-1	[-999, -999, -999]	n/a	FR1	0	R1069M
130.166	6.268	82476	PROB	6.239	n/a	n/a	-999	-1	[1, 4, 7]	12.0	FR1	0	R1069M
136.434	3.768	85610	PROB	3.748	n/a	n/a	-999	-1	[4, 4, 1]	9.0	FR1	0	R1069M
140.202	7.967	87494	PROB	7.947	n/a	n/a	-999	-1	[9, 6, 9]	26.0	FR1	0	R1069M
148.169	4.029	91477	PROB	4.029	n/a	n/a	-999	-1	[8, 8, 8]	24.0	FR1	0	R1069M
152.198	0.007	93491	STOP	n/a	n/a	n/a	-999	-1	[-999, -999, -999]	n/a	FR1	0	R1069M
152.205	0.634	93495	PRACTICE_DISTRACT_END	n/a	n/a	n/a	-999	-1	[0, 0, 0]	n/a	FR1	0	R1069M
152.839	30.515	93812	PRACTICE_REC_START	n/a	n/a	n/a	-999	-1	[0, 0, 0]	n/a	FR1	0	R1069M
183.354	32.428	109068	PRACTICE_REC_END	n/a	n/a	n/a	-999	-1	[0, 0, 0]	n/a	FR1	0	R1069M
215.782	10.0	125281	COUNTDOWN_START	n/a	n/a	n/a	-999	1	[0, 0, 0]	n/a	FR1	0	R1069M
215.783	10.427	125281	TRIAL	n/a	n/a	n/a	-999	1	[0, 0, 0]	n/a	FR1	0	R1069M
226.21	0.009	130494	COUNTDOWN_END	n/a	n/a	n/a	-999	1	[0, 0, 0]	n/a	FR1	0	R1069M
226.219	1.6	130499	ORIENT	n/a	n/a	n/a	-999	1	[0, 0, 0]	n/a	FR1	0	R1069M
228.835	1.6	131807	WORD	n/a	wordpools/wordpool_EN.txt	RAKE	1	1	[0, 0, 0]	n/a	FR1	0	R1069M
231.385	1.6	133082	WORD	n/a	wordpools/wordpool_EN.txt	SPRING	2	1	[0, 0, 0]	n/a	FR1	0	R1069M
233.869	1.6	134324	WORD	n/a	wordpools/wordpool_EN.txt	WORM	3	1	[0, 0, 0]	n/a	FR1	0	R1069M
236.287	1.6	135533	WORD	n/a	wordpools/wordpool_EN.txt	BLUSH	4	1	[0, 0, 0]	n/a	FR1	0	R1069M
238.854	1.6	136816	WORD	n/a	wordpools/wordpool_EN.txt	MOLE	5	1	[0, 0, 0]	n/a	FR1	0	R1069M
241.421	1.6	138099	WORD	n/a	wordpools/wordpool_EN.txt	ROAD	6	1	[0, 0, 0]	n/a	FR1	0	R1069M
244.021	1.6	139399	WORD	n/a	wordpools/wordpool_EN.txt	LEAF	7	1	[0, 0, 0]	n/a	FR1	0	R1069M
246.639	1.6	140708	WORD	n/a	wordpools/wordpool_EN.txt	WEB	8	1	[0, 0, 0]	n/a	FR1	0	R1069M
249.257	1.6	142017	WORD	n/a	wordpools/wordpool_EN.txt	TAIL	9	1	[0, 0, 0]	n/a	FR1	0	R1069M
251.806	1.6	143291	WORD	n/a	wordpools/wordpool_EN.txt	BUSH	10	1	[0, 0, 0]	n/a	FR1	0	R1069M
254.323	1.6	144550	WORD	n/a	wordpools/wordpool_EN.txt	FLEA	11	1	[0, 0, 0]	n/a	FR1	0	R1069M
256.791	1.6	145784	WORD	n/a	wordpools/wordpool_EN.txt	CAGE	12	1	[0, 0, 0]	n/a	FR1	0	R1069M
258.407	0.001	146592	DISTRACT_START	n/a	n/a	n/a	-999	1	[0, 0, 0]	n/a	FR1	0	R1069M
258.408	0.016	146592	START	n/a	n/a	n/a	-999	1	[-999, -999, -999]	n/a	FR1	0	R1069M
258.424	4.368	146600	PROB	4.333	n/a	n/a	-999	1	[2, 4, 3]	9.0	FR1	0	R1069M
262.792	3.2	148784	PROB	3.165	n/a	n/a	-999	1	[4, 3, 1]	8.0	FR1	0	R1069M
265.992	5.202	150384	PROB	5.173	n/a	n/a	-999	1	[2, 4, 9]	15.0	FR1	0	R1069M
271.194	2.65	152985	PROB	2.619	n/a	n/a	-999	1	[1, 9, 2]	12.0	FR1	0	R1069M
273.844	2.75	154310	PROB	2.721	n/a	n/a	-999	1	[7, 4, 1]	12.0	FR1	0	R1069M
276.594	3.315	155684	PROB	3.315	n/a	n/a	-999	1	[4, 6, 7]	17.0	FR1	0	R1069M
279.909	0.019	157342	STOP	n/a	n/a	n/a	-999	1	[-999, -999, -999]	n/a	FR1	0	R1069M
279.928	1.168	157351	DISTRACT_END	n/a	n/a	n/a	-999	1	[0, 0, 0]	n/a	FR1	0	R1069M
281.096	1.53	157935	REC_START	n/a	n/a	n/a	-999	1	[0, 0, 0]	n/a	FR1	0	R1069M
282.626	1.385	158700	REC_WORD	1.53	n/a	RAKE	1	1	[0, 0, 0]	n/a	FR1	0	R1069M
284.011	1.185	159393	REC_WORD	2.915	n/a	BLUSH	4	1	[0, 0, 0]	n/a	FR1	0	R1069M
285.196	1.926	159985	REC_WORD	4.1	n/a	SPRING	2	1	[0, 0, 0]	n/a	FR1	0	R1069M
287.122	1.404	160948	REC_WORD	6.026	n/a	WORM	3	1	[0, 0, 0]	n/a	FR1	0	R1069M
288.526	22.58	161650	REC_WORD	7.43	n/a	FLEA	11	1	[0, 0, 0]	n/a	FR1	0	R1069M
311.106	9.163	172939	REC_END	n/a	n/a	n/a	-999	1	[0, 0, 0]	n/a	FR1	0	R1069M
320.269	10.0	177520	COUNTDOWN_START	n/a	n/a	n/a	-999	2	[0, 0, 0]	n/a	FR1	0	R1069M
320.27	10.427	177521	TRIAL	n/a	n/a	n/a	-999	2	[0, 0, 0]	n/a	FR1	0	R1069M
330.697	0.008	182734	COUNTDOWN_END	n/a	n/a	n/a	-999	2	[0, 0, 0]	n/a	FR1	0	R1069M
330.705	1.6	182738	ORIENT	n/a	n/a	n/a	-999	2	[0, 0, 0]	n/a	FR1	0	R1069M
333.272	1.6	184021	WORD	n/a	wordpools/wordpool_EN.txt	DRESS	1	2	[0, 0, 0]	n/a	FR1	0	R1069M
335.672	1.6	185221	WORD	n/a	wordpools/wordpool_EN.txt	LAWN	2	2	[0, 0, 0]	n/a	FR1	0	R1069M
338.123	1.6	186446	WORD	n/a	wordpools/wordpool_EN.txt	BARN	3	2	[0, 0, 0]	n/a	FR1	0	R1069M
340.523	1.6	187646	WORD	n/a	wordpools/wordpool_EN.txt	SCHOOL	4	2	[0, 0, 0]	n/a	FR1	0	R1069M
343.091	1.6	188930	WORD	n/a	wordpools/wordpool_EN.txt	VEST	5	2	[0, 0, 0]	n/a	FR1	0	R1069M
345.508	1.6	190139	WORD	n/a	wordpools/wordpool_EN.txt	MUD	6	2	[0, 0, 0]	n/a	FR1	0	R1069M
347.892	1.6	191331	WORD	n/a	wordpools/wordpool_EN.txt	ROOF	7	2	[0, 0, 0]	n/a	FR1	0	R1069M
350.309	1.6	192539	WORD	n/a	wordpools/wordpool_EN.txt	NOSE	8	2	[0, 0, 0]	n/a	FR1	0	R1069M
352.809	1.6	193789	WORD	n/a	wordpools/wordpool_EN.txt	FACE	9	2	[0, 0, 0]	n/a	FR1	0	R1069M
355.244	1.6	195006	WORD	n/a	wordpools/wordpool_EN.txt	STREET	10	2	[0, 0, 0]	n/a	FR1	0	R1069M
357.81	1.6	196289	WORD	n/a	wordpools/wordpool_EN.txt	SHARK	11	2	[0, 0, 0]	n/a	FR1	0	R1069M
360.411	1.6	197590	WORD	n/a	wordpools/wordpool_EN.txt	CHEEK	12	2	[0, 0, 0]	n/a	FR1	0	R1069M
362.028	0.0	198398	DISTRACT_START	n/a	n/a	n/a	-999	2	[0, 0, 0]	n/a	FR1	0	R1069M
362.028	0.016	198398	START	n/a	n/a	n/a	-999	2	[-999, -999, -999]	n/a	FR1	0	R1069M
362.044	4.684	198406	PROB	4.657	n/a	n/a	-999	2	[3, 9, 7]	19.0	FR1	0	R1069M
366.728	2.984	200748	PROB	2.949	n/a	n/a	-999	2	[6, 6, 1]	13.0	FR1	0	R1069M
369.712	3.084	202240	PROB	3.061	n/a	n/a	-999	2	[9, 4, 9]	22.0	FR1	0	R1069M
372.796	3.918	203782	PROB	3.897	n/a	n/a	-999	2	[8, 1, 9]	18.0	FR1	0	R1069M
376.714	3.584	205740	PROB	3.555	n/a	n/a	-999	2	[5, 9, 4]	18.0	FR1	0	R1069M
380.298	4.139	207532	PROB	4.139	n/a	n/a	-999	2	[3, 9, 7]	19.0	FR1	0	R1069M
384.437	0.012	209602	STOP	n/a	n/a	n/a	-999	2	[-999, -999, -999]	n/a	FR1	0	R1069M
384.449	1.2	209608	DISTRACT_END	n/a	n/a	n/a	-999	2	[0, 0, 0]	n/a	FR1	0	R1069M
385.649	2.403	210208	REC_START	n/a	n/a	n/a	-999	2	[0, 0, 0]	n/a	FR1	0	R1069M
388.052	1.516	211409	REC_WORD	2.403	n/a	BARN	3	2	[0, 0, 0]	n/a	FR1	0	R1069M
389.568	1.903	212167	REC_WORD	3.919	n/a	MUD	6	2	[0, 0, 0]	n/a	FR1	0	R1069M
391.471	1.872	213118	REC_WORD	5.822	n/a	FACE	9	2	[0, 0, 0]	n/a	FR1	0	R1069M
393.343	7.672	214054	REC_WORD	7.694	n/a	CHEEK	12	2	[0, 0, 0]	n/a	FR1	0	R1069M
401.015	14.648	217890	REC_WORD	15.366	n/a	VEST	5	2	[0, 0, 0]	n/a	FR1	0	R1069M
415.663	4.593	225213	REC_END	n/a	n/a	n/a	-999	2	[0, 0, 0]	n/a	FR1	0	R1069M
420.256	10.0	227510	COUNTDOWN_START	n/a	n/a	n/a	-999	3	[0, 0, 0]	n/a	FR1	0	R1069M
420.257	10.427	227510	TRIAL	n/a	n/a	n/a	-999	3	[0, 0, 0]	n/a	FR1	0	R1069M
430.684	0.007	232723	COUNTDOWN_END	n/a	n/a	n/a	-999	3	[0, 0, 0]	n/a	FR1	0	R1069M
430.691	1.6	232727	ORIENT	n/a	n/a	n/a	-999	3	[0, 0, 0]	n/a	FR1	0	R1069M
433.209	1.6	233986	WORD	n/a	wordpools/wordpool_EN.txt	SEA	1	3	[0, 0, 0]	n/a	FR1	0	R1069M
435.808	1.6	235285	WORD	n/a	wordpools/wordpool_EN.txt	STAR	2	3	[0, 0, 0]	n/a	FR1	0	R1069M
438.275	1.6	236518	WORD	n/a	wordpools/wordpool_EN.txt	SHIP	3	3	[0, 0, 0]	n/a	FR1	0	R1069M
440.793	1.6	237777	WORD	n/a	wordpools/wordpool_EN.txt	STEAM	4	3	[0, 0, 0]	n/a	FR1	0	R1069M
443.377	1.6	239069	WORD	n/a	wordpools/wordpool_EN.txt	BOMB	5	3	[0, 0, 0]	n/a	FR1	0	R1069M
445.977	1.6	240369	WORD	n/a	wordpools/wordpool_EN.txt	JEEP	6	3	[0, 0, 0]	n/a	FR1	0	R1069M
448.394	1.6	241577	WORD	n/a	wordpools/wordpool_EN.txt	PLANE	7	3	[0, 0, 0]	n/a	FR1	0	R1069M
450.811	1.6	242786	WORD	n/a	wordpools/wordpool_EN.txt	MOON	8	3	[0, 0, 0]	n/a	FR1	0	R1069M
453.379	1.6	244070	WORD	n/a	wordpools/wordpool_EN.txt	FILM	9	3	[0, 0, 0]	n/a	FR1	0	R1069M
455.896	1.6	245328	WORD	n/a	wordpools/wordpool_EN.txt	CLOUD	10	3	[0, 0, 0]	n/a	FR1	0	R1069M
458.296	1.6	246528	WORD	n/a	wordpools/wordpool_EN.txt	TANK	11	3	[0, 0, 0]	n/a	FR1	0	R1069M
460.78	1.6	247770	WORD	n/a	wordpools/wordpool_EN.txt	FLUTE	12	3	[0, 0, 0]	n/a	FR1	0	R1069M
462.397	0.001	248578	DISTRACT_START	n/a	n/a	n/a	-999	3	[0, 0, 0]	n/a	FR1	0	R1069M
462.398	0.016	248579	START	n/a	n/a	n/a	-999	3	[-999, -999, -999]	n/a	FR1	0	R1069M
462.414	3.534	248587	PROB	3.503	n/a	n/a	-999	3	[2, 7, 6]	15.0	FR1	0	R1069M
465.948	5.101	250354	PROB	5.073	n/a	n/a	-999	3	[8, 5, 7]	20.0	FR1	0	R1069M
471.049	3.884	252904	PROB	3.86	n/a	n/a	-999	3	[5, 2, 8]	15.0	FR1	0	R1069M
474.933	2.984	254846	PROB	2.952	n/a	n/a	-999	3	[1, 6, 4]	11.0	FR1	0	R1069M
477.917	3.45	256338	PROB	3.424	n/a	n/a	-999	3	[6, 8, 2]	16.0	FR1	0	R1069M
481.367	4.134	258063	PROB	4.134	n/a	n/a	-999	3	[8, 1, 5]	14.0	FR1	0	R1069M
485.501	0.017	260129	STOP	n/a	n/a	n/a	-999	3	[-999, -999, -999]	n/a	FR1	0	R1069M
485.518	1.134	260138	DISTRACT_END	n/a	n/a	n/a	-999	3	[0, 0, 0]	n/a	FR1	0	R1069M
486.652	0.816	260705	REC_START	n/a	n/a	n/a	-999	3	[0, 0, 0]	n/a	FR1	0	R1069M
487.468	1.667	261113	REC_WORD	0.816	n/a	SEA	1	3	[0, 0, 0]	n/a	FR1	0	R1069M
489.135	1.822	261946	REC_WORD	2.483	n/a	STAR	2	3	[0, 0, 0]	n/a	FR1	0	R1069M
490.957	2.464	262857	REC_WORD	4.305	n/a	SHIP	3	3	[0, 0, 0]	n/a	FR1	0	R1069M
493.421	6.997	264089	REC_WORD	6.769	n/a	JEEP	6	3	[0, 0, 0]	n/a	FR1	0	R1069M
500.418	13.663	267587	REC_WORD	13.766	n/a	WORM	-999	3	[0, 0, 0]	n/a	FR1	0	R1069M
514.081	2.585	274418	REC_WORD	27.429	n/a	RACK	-999	3	[0, 0, 0]	n/a	FR1	0	R1069M
516.666	29.23	275711	REC_END	n/a	n/a	n/a	-999	3	[0, 0, 0]	n/a	FR1	0	R1069M
545.896	10.0	290325	COUNTDOWN_START	n/a	n/a	n/a	-999	4	[0, 0, 0]	n/a	FR1	0	R1069M
545.896	10.428	290325	TRIAL	n/a	n/a	n/a	-999	4	[0, 0, 0]	n/a	FR1	0	R1069M
556.324	0.008	295538	COUNTDOWN_END	n/a	n/a	n/a	-999	4	[0, 0, 0]	n/a	FR1	0	R1069M
556.332	1.6	295542	ORIENT	n/a	n/a	n/a	-999	4	[0, 0, 0]	n/a	FR1	0	R1069M
558.882	1.6	296817	WORD	n/a	wordpools/wordpool_EN.txt	SOAP	1	4	[0, 0, 0]	n/a	FR1	0	R1069M
561.433	1.6	298092	WORD	n/a	wordpools/wordpool_EN.txt	PALM	2	4	[0, 0, 0]	n/a	FR1	0	R1069M
563.967	1.6	299359	WORD	n/a	wordpools/wordpool_EN.txt	CANE	3	4	[0, 0, 0]	n/a	FR1	0	R1069M
566.367	1.6	300559	WORD	n/a	wordpools/wordpool_EN.txt	JAR	4	4	[0, 0, 0]	n/a	FR1	0	R1069M
568.768	1.6	301760	WORD	n/a	wordpools/wordpool_EN.txt	POOL	5	4	[0, 0, 0]	n/a	FR1	0	R1069M
571.301	1.6	303026	WORD	n/a	wordpools/wordpool_EN.txt	TOAST	6	4	[0, 0, 0]	n/a	FR1	0	R1069M
573.802	1.6	304276	WORD	n/a	wordpools/wordpool_EN.txt	VASE	7	4	[0, 0, 0]	n/a	FR1	0	R1069M
576.269	1.6	305510	WORD	n/a	wordpools/wordpool_EN.txt	TRAY	8	4	[0, 0, 0]	n/a	FR1	0	R1069M
578.669	1.6	306710	WORD	n/a	wordpools/wordpool_EN.txt	COUCH	9	4	[0, 0, 0]	n/a	FR1	0	R1069M
581.17	1.6	307960	WORD	n/a	wordpools/wordpool_EN.txt	HOUSE	10	4	[0, 0, 0]	n/a	FR1	0	R1069M
583.62	1.6	309185	WORD	n/a	wordpools/wordpool_EN.txt	CUBE	11	4	[0, 0, 0]	n/a	FR1	0	R1069M
586.004	1.6	310377	WORD	n/a	wordpools/wordpool_EN.txt	VAN	12	4	[0, 0, 0]	n/a	FR1	0	R1069M
587.621	0.001	311185	DISTRACT_START	n/a	n/a	n/a	-999	4	[0, 0, 0]	n/a	FR1	0	R1069M
587.622	0.016	311186	START	n/a	n/a	n/a	-999	4	[-999, -999, -999]	n/a	FR1	0	R1069M
587.638	4.767	311194	PROB	4.743	n/a	n/a	-999	4	[6, 1, 8]	15.0	FR1	0	R1069M
592.405	3.468	313577	PROB	3.432	n/a	n/a	-999	4	[6, 5, 4]	15.0	FR1	0	R1069M
595.873	3.6	315311	PROB	3.58	n/a	n/a	-999	4	[4, 1, 1]	6.0	FR1	0	R1069M
599.473	4.418	317111	PROB	4.396	n/a	n/a	-999	4	[4, 7, 2]	13.0	FR1	0	R1069M
603.891	3.034	319320	PROB	3.002	n/a	n/a	-999	4	[4, 3, 2]	9.0	FR1	0	R1069M
606.925	2.616	320837	PROB	2.616	n/a	n/a	-999	4	[2, 1, 8]	11.0	FR1	0	R1069M
609.541	0.018	322144	STOP	n/a	n/a	n/a	-999	4	[-999, -999, -999]	n/a	FR1	0	R1069M
609.559	1.184	322153	DISTRACT_END	n/a	n/a	n/a	-999	4	[0, 0, 0]	n/a	FR1	0	R1069M
610.743	0.898	322745	REC_START	n/a	n/a	n/a	-999	4	[0, 0, 0]	n/a	FR1	0	R1069M
611.641	1.674	323194	REC_WORD	0.898	n/a	SOAP	1	4	[0, 0, 0]	n/a	FR1	0	R1069M
613.315	1.732	324031	REC_WORD	2.572	n/a	PALM	2	4	[0, 0, 0]	n/a	FR1	0	R1069M
615.047	5.118	324897	REC_WORD	4.304	n/a	JAR	4	4	[0, 0, 0]	n/a	FR1	0	R1069M
620.165	20.588	327456	REC_WORD	9.422	n/a	FACE	-999	4	[0, 0, 0]	n/a	FR1	0	R1069M
640.753	17.466	337749	REC_END	n/a	n/a	n/a	-999	4	[0, 0, 0]	n/a	FR1	0	R1069M
658.219	0.0	346481	TRIAL	n/a	n/a	n/a	-999	5	[0, 0, 0]	n/a	FR1	0	R1069M
658.219	10.0	346481	COUNTDOWN_START	n/a	n/a	n/a	-999	5	[0, 0, 0]	n/a	FR1	0	R1069M
668.647	0.007	351695	COUNTDOWN_END	n/a	n/a	n/a	-999	5	[0, 0, 0]	n/a	FR1	0	R1069M
668.654	1.6	351699	ORIENT	n/a	n/a	n/a	-999	5	[0, 0, 0]	n/a	FR1	0	R1069M
671.238	1.6	352990	WORD	n/a	wordpools/wordpool_EN.txt	OAK	1	5	[0, 0, 0]	n/a	FR1	0	R1069M
673.721	1.6	354232	WORD	n/a	wordpools/wordpool_EN.txt	CUP	2	5	[0, 0, 0]	n/a	FR1	0	R1069M
676.189	1.6	355466	WORD	n/a	wordpools/wordpool_EN.txt	MUG	3	5	[0, 0, 0]	n/a	FR1	0	R1069M
678.605	1.6	356674	WORD	n/a	wordpools/wordpool_EN.txt	SHELL	4	5	[0, 0, 0]	n/a	FR1	0	R1069M
681.207	1.6	357975	WORD	n/a	wordpools/wordpool_EN.txt	PASTE	5	5	[0, 0, 0]	n/a	FR1	0	R1069M
683.723	1.6	359232	WORD	n/a	wordpools/wordpool_EN.txt	EGG	6	5	[0, 0, 0]	n/a	FR1	0	R1069M
686.34	1.6	360541	WORD	n/a	wordpools/wordpool_EN.txt	WAND	7	5	[0, 0, 0]	n/a	FR1	0	R1069M
688.791	1.6	361766	WORD	n/a	wordpools/wordpool_EN.txt	SPOON	8	5	[0, 0, 0]	n/a	FR1	0	R1069M
691.275	1.6	363008	WORD	n/a	wordpools/wordpool_EN.txt	HEN	9	5	[0, 0, 0]	n/a	FR1	0	R1069M
693.792	1.6	364267	WORD	n/a	wordpools/wordpool_EN.txt	LAMB	10	5	[0, 0, 0]	n/a	FR1	0	R1069M
696.243	1.6	365492	WORD	n/a	wordpools/wordpool_EN.txt	WOOD	11	5	[0, 0, 0]	n/a	FR1	0	R1069M
698.776	1.6	366758	WORD	n/a	wordpools/wordpool_EN.txt	PEACH	12	5	[0, 0, 0]	n/a	FR1	0	R1069M
700.393	0.001	367567	DISTRACT_START	n/a	n/a	n/a	-999	5	[0, 0, 0]	n/a	FR1	0	R1069M
700.394	0.016	367567	START	n/a	n/a	n/a	-999	5	[-999, -999, -999]	n/a	FR1	0	R1069M
700.41	3.785	367575	PROB	3.755	n/a	n/a	-999	5	[4, 9, 2]	15.0	FR1	0	R1069M
704.195	3.166	369468	PROB	3.138	n/a	n/a	-999	5	[1, 4, 8]	13.0	FR1	0	R1069M
707.361	3.967	371050	PROB	3.94	n/a	n/a	-999	5	[7, 3, 9]	19.0	FR1	0	R1069M
711.328	6.002	373034	PROB	5.973	n/a	n/a	-999	5	[4, 3, 7]	14.0	FR1	0	R1069M
717.33	3.339	376035	PROB	3.339	n/a	n/a	-999	5	[1, 6, 9]	16.0	FR1	0	R1069M
720.669	0.011	377704	STOP	n/a	n/a	n/a	-999	5	[-999, -999, -999]	n/a	FR1	0	R1069M
720.68	1.068	377709	DISTRACT_END	n/a	n/a	n/a	-999	5	[0, 0, 0]	n/a	FR1	0	R1069M
721.748	1.345	378243	REC_START	n/a	n/a	n/a	-999	5	[0, 0, 0]	n/a	FR1	0	R1069M
723.093	3.669	378916	REC_WORD	1.345	n/a	OAK	1	5	[0, 0, 0]	n/a	FR1	0	R1069M
726.762	5.121	380750	REC_WORD	5.014	n/a	TREE	-999	5	[0, 0, 0]	n/a	FR1	0	R1069M
731.883	19.875	383311	REC_WORD	10.135	n/a	PASTE	5	5	[0, 0, 0]	n/a	FR1	0	R1069M
751.758	23.149	393247	REC_END	n/a	n/a	n/a	-999	5	[0, 0, 0]	n/a	FR1	0	R1069M
774.907	10.0	404821	COUNTDOWN_START	n/a	n/a	n/a	-999	6	[0, 0, 0]	n/a	FR1	0	R1069M
774.908	10.427	404821	TRIAL	n/a	n/a	n/a	-999	6	[0, 0, 0]	n/a	FR1	0	R1069M
785.335	0.008	410034	COUNTDOWN_END	n/a	n/a	n/a	-999	6	[0, 0, 0]	n/a	FR1	0	R1069M
785.343	1.6	410038	ORIENT	n/a	n/a	n/a	-999	6	[0, 0, 0]	n/a	FR1	0	R1069M
787.76	1.6	411247	WORD	n/a	wordpools/wordpool_EN.txt	JUDGE	1	6	[0, 0, 0]	n/a	FR1	0	R1069M
790.178	1.6	412456	WORD	n/a	wordpools/wordpool_EN.txt	KEY	2	6	[0, 0, 0]	n/a	FR1	0	R1069M
792.644	1.6	413689	WORD	n/a	wordpools/wordpool_EN.txt	BOY	3	6	[0, 0, 0]	n/a	FR1	0	R1069M
795.212	1.6	414972	WORD	n/a	wordpools/wordpool_EN.txt	DESK	4	6	[0, 0, 0]	n/a	FR1	0	R1069M
797.728	1.6	416230	WORD	n/a	wordpools/wordpool_EN.txt	CASH	5	6	[0, 0, 0]	n/a	FR1	0	R1069M
800.329	1.6	417531	WORD	n/a	wordpools/wordpool_EN.txt	FLAG	6	6	[0, 0, 0]	n/a	FR1	0	R1069M
802.913	1.6	418823	WORD	n/a	wordpools/wordpool_EN.txt	BADGE	7	6	[0, 0, 0]	n/a	FR1	0	R1069M
805.297	1.6	420015	WORD	n/a	wordpools/wordpool_EN.txt	ROOM	8	6	[0, 0, 0]	n/a	FR1	0	R1069M
807.847	1.6	421289	WORD	n/a	wordpools/wordpool_EN.txt	CAR	9	6	[0, 0, 0]	n/a	FR1	0	R1069M
810.398	1.6	422565	WORD	n/a	wordpools/wordpool_EN.txt	SIGN	10	6	[0, 0, 0]	n/a	FR1	0	R1069M
813.015	1.6	423873	WORD	n/a	wordpools/wordpool_EN.txt	ARK	11	6	[0, 0, 0]	n/a	FR1	0	R1069M
815.549	1.6	425140	WORD	n/a	wordpools/wordpool_EN.txt	PIE	12	6	[0, 0, 0]	n/a	FR1	0	R1069M
817.166	0.0	425949	DISTRACT_START	n/a	n/a	n/a	-999	6	[0, 0, 0]	n/a	FR1	0	R1069M
817.166	0.017	425949	START	n/a	n/a	n/a	-999	6	[-999, -999, -999]	n/a	FR1	0	R1069M
817.183	4.633	425957	PROB	4.598	n/a	n/a	-999	6	[2, 3, 1]	6.0	FR1	0	R1069M
821.816	3.084	428273	PROB	3.061	n/a	n/a	-999	6	[5, 5, 3]	13.0	FR1	0	R1069M
824.9	4.302	429815	PROB	4.282	n/a	n/a	-999	6	[3, 7, 9]	19.0	FR1	0	R1069M
829.202	3.317	431966	PROB	3.291	n/a	n/a	-999	6	[1, 6, 9]	16.0	FR1	0	R1069M
832.519	2.65	433624	PROB	2.614	n/a	n/a	-999	6	[2, 7, 3]	12.0	FR1	0	R1069M
835.169	5.284	434949	PROB	5.284	n/a	n/a	-999	6	[6, 7, 5]	18.0	FR1	0	R1069M
840.453	0.017	437591	STOP	n/a	n/a	n/a	-999	6	[-999, -999, -999]	n/a	FR1	0	R1069M
840.47	1.068	437600	DISTRACT_END	n/a	n/a	n/a	-999	6	[0, 0, 0]	n/a	FR1	0	R1069M
841.538	1.105	438134	REC_START	n/a	n/a	n/a	-999	6	[0, 0, 0]	n/a	FR1	0	R1069M
842.643	1.876	438686	REC_WORD	1.105	n/a	JUDGE	1	6	[0, 0, 0]	n/a	FR1	0	R1069M
844.519	5.846	439624	REC_WORD	2.981	n/a	DESK	4	6	[0, 0, 0]	n/a	FR1	0	R1069M
850.365	17.273	442547	REC_WORD	8.827	n/a	BOY	3	6	[0, 0, 0]	n/a	FR1	0	R1069M
867.638	3.91	451183	REC_WORD	26.1	n/a	BAG	-999	6	[0, 0, 0]	n/a	FR1	0	R1069M
871.548	19.315	453137	REC_END	n/a	n/a	n/a	-999	6	[0, 0, 0]	n/a	FR1	0	R1069M
890.863	0.0	462794	TRIAL	n/a	n/a	n/a	-999	7	[0, 0, 0]	n/a	FR1	0	R1069M
890.863	10.0	462794	COUNTDOWN_START	n/a	n/a	n/a	-999	7	[0, 0, 0]	n/a	FR1	0	R1069M
901.291	0.008	468008	COUNTDOWN_END	n/a	n/a	n/a	-999	7	[0, 0, 0]	n/a	FR1	0	R1069M
901.299	1.6	468012	ORIENT	n/a	n/a	n/a	-999	7	[0, 0, 0]	n/a	FR1	0	R1069M
903.782	1.6	469253	WORD	n/a	wordpools/wordpool_EN.txt	GUARD	1	7	[0, 0, 0]	n/a	FR1	0	R1069M
906.283	1.6	470503	WORD	n/a	wordpools/wordpool_EN.txt	SWAMP	2	7	[0, 0, 0]	n/a	FR1	0	R1069M
908.767	1.6	471745	WORD	n/a	wordpools/wordpool_EN.txt	STONE	3	7	[0, 0, 0]	n/a	FR1	0	R1069M
911.284	1.6	473004	WORD	n/a	wordpools/wordpool_EN.txt	DART	4	7	[0, 0, 0]	n/a	FR1	0	R1069M
913.851	1.6	474287	WORD	n/a	wordpools/wordpool_EN.txt	CALF	5	7	[0, 0, 0]	n/a	FR1	0	R1069M
916.401	1.6	475562	WORD	n/a	wordpools/wordpool_EN.txt	CAVE	6	7	[0, 0, 0]	n/a	FR1	0	R1069M
919.002	1.6	476862	WORD	n/a	wordpools/wordpool_EN.txt	CORN	7	7	[0, 0, 0]	n/a	FR1	0	R1069M
921.502	1.6	478112	WORD	n/a	wordpools/wordpool_EN.txt	PIG	8	7	[0, 0, 0]	n/a	FR1	0	R1069M
923.886	1.6	479304	WORD	n/a	wordpools/wordpool_EN.txt	CLAY	9	7	[0, 0, 0]	n/a	FR1	0	R1069M
926.403	1.6	480563	WORD	n/a	wordpools/wordpool_EN.txt	DEER	10	7	[0, 0, 0]	n/a	FR1	0	R1069M
928.937	1.6	481830	WORD	n/a	wordpools/wordpool_EN.txt	DITCH	11	7	[0, 0, 0]	n/a	FR1	0	R1069M
931.554	1.6	483138	WORD	n/a	wordpools/wordpool_EN.txt	SPEAR	12	7	[0, 0, 0]	n/a	FR1	0	R1069M
933.171	0.001	483946	DISTRACT_START	n/a	n/a	n/a	-999	7	[0, 0, 0]	n/a	FR1	0	R1069M
933.172	0.017	483947	START	n/a	n/a	n/a	-999	7	[-999, -999, -999]	n/a	FR1	0	R1069M
933.189	4.633	483955	PROB	4.6	n/a	n/a	-999	7	[4, 8, 8]	20.0	FR1	0	R1069M
937.822	3.451	486272	PROB	3.416	n/a	n/a	-999	7	[2, 6, 1]	9.0	FR1	0	R1069M
941.273	3.567	487997	PROB	3.532	n/a	n/a	-999	7	[4, 5, 4]	13.0	FR1	0	R1069M
944.84	4.084	489780	PROB	4.053	n/a	n/a	-999	7	[3, 8, 2]	13.0	FR1	0	R1069M
948.924	4.753	491822	PROB	4.753	n/a	n/a	-999	7	[8, 9, 9]	26.0	FR1	0	R1069M
953.677	0.015	494199	STOP	n/a	n/a	n/a	-999	7	[-999, -999, -999]	n/a	FR1	0	R1069M
953.692	1.084	494206	DISTRACT_END	n/a	n/a	n/a	-999	7	[0, 0, 0]	n/a	FR1	0	R1069M
954.776	1.7	494748	REC_START	n/a	n/a	n/a	-999	7	[0, 0, 0]	n/a	FR1	0	R1069M
956.476	3.213	495598	REC_WORD	1.7	n/a	CORN	7	7	[0, 0, 0]	n/a	FR1	0	R1069M
959.689	8.825	497204	REC_WORD	4.913	n/a	PIG	8	7	[0, 0, 0]	n/a	FR1	0	R1069M
968.514	16.276	501616	REC_WORD	13.738	n/a	DITCH	11	7	[0, 0, 0]	n/a	FR1	0	R1069M
984.79	6.843	509754	REC_END	n/a	n/a	n/a	-999	7	[0, 0, 0]	n/a	FR1	0	R1069M
991.633	0.0	513175	TRIAL	n/a	n/a	n/a	-999	8	[0, 0, 0]	n/a	FR1	0	R1069M
991.633	10.0	513175	COUNTDOWN_START	n/a	n/a	n/a	-999	8	[0, 0, 0]	n/a	FR1	0	R1069M
1002.061	0.007	518389	COUNTDOWN_END	n/a	n/a	n/a	-999	8	[0, 0, 0]	n/a	FR1	0	R1069M
1002.068	1.6	518392	ORIENT	n/a	n/a	n/a	-999	8	[0, 0, 0]	n/a	FR1	0	R1069M
1004.518	1.6	519617	WORD	n/a	wordpools/wordpool_EN.txt	COIN	1	8	[0, 0, 0]	n/a	FR1	0	R1069M
1007.019	1.6	520867	WORD	n/a	wordpools/wordpool_EN.txt	WALL	2	8	[0, 0, 0]	n/a	FR1	0	R1069M
1009.403	1.6	522059	WORD	n/a	wordpools/wordpool_EN.txt	GLOVE	3	8	[0, 0, 0]	n/a	FR1	0	R1069M
1011.97	1.6	523343	WORD	n/a	wordpools/wordpool_EN.txt	SHIELD	4	8	[0, 0, 0]	n/a	FR1	0	R1069M
1014.404	1.6	524560	WORD	n/a	wordpools/wordpool_EN.txt	SPARK	5	8	[0, 0, 0]	n/a	FR1	0	R1069M
1016.871	1.6	525793	WORD	n/a	wordpools/wordpool_EN.txt	RAIN	6	8	[0, 0, 0]	n/a	FR1	0	R1069M
1019.455	1.6	527085	WORD	n/a	wordpools/wordpool_EN.txt	SPONGE	7	8	[0, 0, 0]	n/a	FR1	0	R1069M
1021.889	1.6	528302	WORD	n/a	wordpools/wordpool_EN.txt	BOX	8	8	[0, 0, 0]	n/a	FR1	0	R1069M
1024.272	1.6	529493	WORD	n/a	wordpools/wordpool_EN.txt	HOOK	9	8	[0, 0, 0]	n/a	FR1	0	R1069M
1026.656	1.6	530685	WORD	n/a	wordpools/wordpool_EN.txt	BALL	10	8	[0, 0, 0]	n/a	FR1	0	R1069M
1029.073	1.6	531893	WORD	n/a	wordpools/wordpool_EN.txt	ELF	11	8	[0, 0, 0]	n/a	FR1	0	R1069M
1031.657	1.6	533185	WORD	n/a	wordpools/wordpool_EN.txt	HOSE	12	8	[0, 0, 0]	n/a	FR1	0	R1069M
1033.258	0.001	533986	DISTRACT_START	n/a	n/a	n/a	-999	8	[0, 0, 0]	n/a	FR1	0	R1069M
1033.259	0.015	533986	START	n/a	n/a	n/a	-999	8	[-999, -999, -999]	n/a	FR1	0	R1069M
1033.274	4.818	533994	PROB	4.787	n/a	n/a	-999	8	[9, 1, 9]	19.0	FR1	0	R1069M
1038.092	4.118	536403	PROB	4.081	n/a	n/a	-999	8	[6, 8, 3]	17.0	FR1	0	R1069M
1042.21	5.133	538461	PROB	5.107	n/a	n/a	-999	8	[7, 5, 5]	17.0	FR1	0	R1069M
1047.343	3.368	541028	PROB	3.342	n/a	n/a	-999	8	[6, 7, 4]	17.0	FR1	0	R1069M
1050.711	3.582	542712	PROB	3.582	n/a	n/a	-999	8	[1, 4, 2]	7.0	FR1	0	R1069M
1054.293	0.018	544502	STOP	n/a	n/a	n/a	-999	8	[-999, -999, -999]	n/a	FR1	0	R1069M
1054.311	1.134	544511	DISTRACT_END	n/a	n/a	n/a	-999	8	[0, 0, 0]	n/a	FR1	0	R1069M
1055.445	1.214	545078	REC_START	n/a	n/a	n/a	-999	8	[0, 0, 0]	n/a	FR1	0	R1069M
1056.659	1.834	545685	REC_WORD	1.214	n/a	RAIN	6	8	[0, 0, 0]	n/a	FR1	0	R1069M
1058.493	4.669	546602	REC_WORD	3.048	n/a	HOSE	12	8	[0, 0, 0]	n/a	FR1	0	R1069M
1063.162	6.512	548937	REC_WORD	7.717	n/a	SPARK	5	8	[0, 0, 0]	n/a	FR1	0	R1069M
1069.674	15.787	552192	REC_WORD	14.229	n/a	CALF	-999	8	[0, 0, 0]	n/a	FR1	0	R1069M
1085.461	5.307	560085	REC_END	n/a	n/a	n/a	-999	8	[0, 0, 0]	n/a	FR1	0	R1069M
1090.768	10.0	562738	COUNTDOWN_START	n/a	n/a	n/a	-999	9	[0, 0, 0]	n/a	FR1	0	R1069M
1090.769	10.427	562739	TRIAL	n/a	n/a	n/a	-999	9	[0, 0, 0]	n/a	FR1	0	R1069M
1101.196	0.009	567952	COUNTDOWN_END	n/a	n/a	n/a	-999	9	[0, 0, 0]	n/a	FR1	0	R1069M
1101.205	1.6	567957	ORIENT	n/a	n/a	n/a	-999	9	[0, 0, 0]	n/a	FR1	0	R1069M
1103.721	1.6	569214	WORD	n/a	wordpools/wordpool_EN.txt	MAP	1	9	[0, 0, 0]	n/a	FR1	0	R1069M
1106.105	1.6	570406	WORD	n/a	wordpools/wordpool_EN.txt	BEAR	2	9	[0, 0, 0]	n/a	FR1	0	R1069M
1108.605	1.6	571656	WORD	n/a	wordpools/wordpool_EN.txt	STEM	3	9	[0, 0, 0]	n/a	FR1	0	R1069M
1111.19	1.6	572949	WORD	n/a	wordpools/wordpool_EN.txt	POLE	4	9	[0, 0, 0]	n/a	FR1	0	R1069M
1113.773	1.6	574240	WORD	n/a	wordpools/wordpool_EN.txt	TOOTH	5	9	[0, 0, 0]	n/a	FR1	0	R1069M
1116.323	1.6	575515	WORD	n/a	wordpools/wordpool_EN.txt	INK	6	9	[0, 0, 0]	n/a	FR1	0	R1069M
1118.791	1.6	576749	WORD	n/a	wordpools/wordpool_EN.txt	TEETH	7	9	[0, 0, 0]	n/a	FR1	0	R1069M
1121.192	1.6	577949	WORD	n/a	wordpools/wordpool_EN.txt	SLIME	8	9	[0, 0, 0]	n/a	FR1	0	R1069M
1123.575	1.6	579141	WORD	n/a	wordpools/wordpool_EN.txt	SALT	9	9	[0, 0, 0]	n/a	FR1	0	R1069M
1125.975	1.6	580341	WORD	n/a	wordpools/wordpool_EN.txt	ROOT	10	9	[0, 0, 0]	n/a	FR1	0	R1069M
1128.543	1.6	581624	WORD	n/a	wordpools/wordpool_EN.txt	WHEEL	11	9	[0, 0, 0]	n/a	FR1	0	R1069M
1131.043	1.6	582874	WORD	n/a	wordpools/wordpool_EN.txt	BANK	12	9	[0, 0, 0]	n/a	FR1	0	R1069M
1132.66	0.001	583683	DISTRACT_START	n/a	n/a	n/a	-999	9	[0, 0, 0]	n/a	FR1	0	R1069M
1132.661	0.016	583683	START	n/a	n/a	n/a	-999	9	[-999, -999, -999]	n/a	FR1	0	R1069M
1132.677	4.017	583691	PROB	3.984	n/a	n/a	-999	9	[3, 8, 6]	17.0	FR1	0	R1069M
1136.694	3.951	585700	PROB	3.919	n/a	n/a	-999	9	[5, 9, 6]	20.0	FR1	0	R1069M
1140.645	3.367	587675	PROB	3.344	n/a	n/a	-999	9	[4, 7, 4]	15.0	FR1	0	R1069M
1144.012	5.868	589358	PROB	5.833	n/a	n/a	-999	9	[6, 2, 7]	15.0	FR1	0	R1069M
1149.88	4.541	592292	PROB	4.541	n/a	n/a	-999	9	[9, 7, 2]	18.0	FR1	0	R1069M
1154.421	0.01	594562	STOP	n/a	n/a	n/a	-999	9	[-999, -999, -999]	n/a	FR1	0	R1069M
1154.431	1.201	594567	DISTRACT_END	n/a	n/a	n/a	-999	9	[0, 0, 0]	n/a	FR1	0	R1069M
1155.632	1.959	595168	REC_START	n/a	n/a	n/a	-999	9	[0, 0, 0]	n/a	FR1	0	R1069M
1157.591	2.008	596147	REC_WORD	1.959	n/a	POLE	4	9	[0, 0, 0]	n/a	FR1	0	R1069M
1159.599	26.043	597151	REC_WORD	3.967	n/a	TEETH	7	9	[0, 0, 0]	n/a	FR1	0	R1069M
1185.642	15.998	610172	REC_END	n/a	n/a	n/a	-999	9	[0, 0, 0]	n/a	FR1	0	R1069M
1201.64	0.0	618170	TRIAL	n/a	n/a	n/a	-999	10	[0, 0, 0]	n/a	FR1	0	R1069M
1201.64	10.0	618170	COUNTDOWN_START	n/a	n/a	n/a	-999	10	[0, 0, 0]	n/a	FR1	0	R1069M
1212.068	0.007	623384	COUNTDOWN_END	n/a	n/a	n/a	-999	10	[0, 0, 0]	n/a	FR1	0	R1069M
1212.075	1.6	623387	ORIENT	n/a	n/a	n/a	-999	10	[0, 0, 0]	n/a	FR1	0	R1069M
1214.459	1.6	624579	WORD	n/a	wordpools/wordpool_EN.txt	STORM	1	10	[0, 0, 0]	n/a	FR1	0	R1069M
1216.926	1.6	625812	WORD	n/a	wordpools/wordpool_EN.txt	FOAM	2	10	[0, 0, 0]	n/a	FR1	0	R1069M
1219.51	1.6	627104	WORD	n/a	wordpools/wordpool_EN.txt	STRAW	3	10	[0, 0, 0]	n/a	FR1	0	R1069M
1222.077	1.6	628388	WORD	n/a	wordpools/wordpool_EN.txt	TRASH	4	10	[0, 0, 0]	n/a	FR1	0	R1069M
1224.578	1.6	629638	WORD	n/a	wordpools/wordpool_EN.txt	CLIFF	5	10	[0, 0, 0]	n/a	FR1	0	R1069M
1227.162	1.6	630930	WORD	n/a	wordpools/wordpool_EN.txt	STAIR	6	10	[0, 0, 0]	n/a	FR1	0	R1069M
1229.779	1.6	632238	WORD	n/a	wordpools/wordpool_EN.txt	GLASS	7	10	[0, 0, 0]	n/a	FR1	0	R1069M
1232.363	1.6	633530	WORD	n/a	wordpools/wordpool_EN.txt	WHALE	8	10	[0, 0, 0]	n/a	FR1	0	R1069M
1234.83	1.6	634764	WORD	n/a	wordpools/wordpool_EN.txt	BRICK	9	10	[0, 0, 0]	n/a	FR1	0	R1069M
1237.447	1.6	636072	WORD	n/a	wordpools/wordpool_EN.txt	SMOKE	10	10	[0, 0, 0]	n/a	FR1	0	R1069M
1239.997	1.6	637347	WORD	n/a	wordpools/wordpool_EN.txt	ROPE	11	10	[0, 0, 0]	n/a	FR1	0	R1069M
1242.398	1.6	638547	WORD	n/a	wordpools/wordpool_EN.txt	ROCK	12	10	[0, 0, 0]	n/a	FR1	0	R1069M
1244.015	0.001	639356	DISTRACT_START	n/a	n/a	n/a	-999	10	[0, 0, 0]	n/a	FR1	0	R1069M
1244.016	0.016	639356	START	n/a	n/a	n/a	-999	10	[-999, -999, -999]	n/a	FR1	0	R1069M
1244.032	3.3	639364	PROB	3.277	n/a	n/a	-999	10	[9, 1, 1]	11.0	FR1	0	R1069M
1247.332	3.852	641014	PROB	3.817	n/a	n/a	-999	10	[9, 5, 5]	19.0	FR1	0	R1069M
1251.184	3.683	642940	PROB	3.661	n/a	n/a	-999	10	[4, 2, 9]	15.0	FR1	0	R1069M
1254.867	4.084	644781	PROB	4.05	n/a	n/a	-999	10	[3, 9, 2]	14.0	FR1	0	R1069M
1258.951	3.817	646823	PROB	3.782	n/a	n/a	-999	10	[9, 8, 4]	21.0	FR1	0	R1069M
1262.768	3.773	648732	PROB	3.773	n/a	n/a	-999	10	[8, 8, 4]	20.0	FR1	0	R1069M
1266.541	0.012	650618	STOP	n/a	n/a	n/a	-999	10	[-999, -999, -999]	n/a	FR1	0	R1069M
1266.553	1.167	650624	DISTRACT_END	n/a	n/a	n/a	-999	10	[0, 0, 0]	n/a	FR1	0	R1069M
1267.72	1.026	651207	REC_START	n/a	n/a	n/a	-999	10	[0, 0, 0]	n/a	FR1	0	R1069M
1268.746	1.586	651720	REC_WORD	1.026	n/a	STORM	1	10	[0, 0, 0]	n/a	FR1	0	R1069M
1270.332	2.21	652513	REC_WORD	2.612	n/a	STRAW	3	10	[0, 0, 0]	n/a	FR1	0	R1069M
1272.542	2.054	653618	REC_WORD	4.822	n/a	CLIFF	5	10	[0, 0, 0]	n/a	FR1	0	R1069M
1274.596	17.353	654645	REC_WORD	6.876	n/a	BRICK	9	10	[0, 0, 0]	n/a	FR1	0	R1069M
1291.949	5.781	663321	REC_WORD	24.229	n/a	RAIN	-999	10	[0, 0, 0]	n/a	FR1	0	R1069M
1297.73	27.15	666211	REC_END	n/a	n/a	n/a	-999	10	[0, 0, 0]	n/a	FR1	0	R1069M
1324.88	10.0	679785	COUNTDOWN_START	n/a	n/a	n/a	-999	11	[0, 0, 0]	n/a	FR1	0	R1069M
1324.881	10.427	679786	TRIAL	n/a	n/a	n/a	-999	11	[0, 0, 0]	n/a	FR1	0	R1069M
1335.308	0.008	684999	COUNTDOWN_END	n/a	n/a	n/a	-999	11	[0, 0, 0]	n/a	FR1	0	R1069M
1335.316	1.6	685003	ORIENT	n/a	n/a	n/a	-999	11	[0, 0, 0]	n/a	FR1	0	R1069M
1337.866	1.6	686277	WORD	n/a	wordpools/wordpool_EN.txt	DOOR	1	11	[0, 0, 0]	n/a	FR1	0	R1069M
1340.268	1.6	687478	WORD	n/a	wordpools/wordpool_EN.txt	SMILE	2	11	[0, 0, 0]	n/a	FR1	0	R1069M
1342.817	1.6	688753	WORD	n/a	wordpools/wordpool_EN.txt	CLOCK	3	11	[0, 0, 0]	n/a	FR1	0	R1069M
1345.434	1.6	690061	WORD	n/a	wordpools/wordpool_EN.txt	OAR	4	11	[0, 0, 0]	n/a	FR1	0	R1069M
1347.952	1.6	691320	WORD	n/a	wordpools/wordpool_EN.txt	LAMP	5	11	[0, 0, 0]	n/a	FR1	0	R1069M
1350.552	1.6	692620	WORD	n/a	wordpools/wordpool_EN.txt	STOVE	6	11	[0, 0, 0]	n/a	FR1	0	R1069M
1353.119	1.6	693903	WORD	n/a	wordpools/wordpool_EN.txt	FLOOR	7	11	[0, 0, 0]	n/a	FR1	0	R1069M
1355.62	1.6	695154	WORD	n/a	wordpools/wordpool_EN.txt	PEN	8	11	[0, 0, 0]	n/a	FR1	0	R1069M
1358.003	1.6	696345	WORD	n/a	wordpools/wordpool_EN.txt	STICK	9	11	[0, 0, 0]	n/a	FR1	0	R1069M
1360.404	1.6	697546	WORD	n/a	wordpools/wordpool_EN.txt	BOOT	10	11	[0, 0, 0]	n/a	FR1	0	R1069M
1362.921	1.6	698804	WORD	n/a	wordpools/wordpool_EN.txt	DIME	11	11	[0, 0, 0]	n/a	FR1	0	R1069M
1365.505	1.6	700096	WORD	n/a	wordpools/wordpool_EN.txt	ARM	12	11	[0, 0, 0]	n/a	FR1	0	R1069M
1367.122	0.001	700904	DISTRACT_START	n/a	n/a	n/a	-999	11	[0, 0, 0]	n/a	FR1	0	R1069M
1367.123	0.016	700905	START	n/a	n/a	n/a	-999	11	[-999, -999, -999]	n/a	FR1	0	R1069M
1367.139	4.085	700913	PROB	4.051	n/a	n/a	-999	11	[8, 1, 1]	10.0	FR1	0	R1069M
1371.224	3.533	702955	PROB	3.501	n/a	n/a	-999	11	[1, 3, 1]	4.0	FR1	0	R1069M
1374.757	3.567	704721	PROB	3.544	n/a	n/a	-999	11	[2, 9, 1]	12.0	FR1	0	R1069M
1378.324	3.284	706505	PROB	3.257	n/a	n/a	-999	11	[8, 4, 1]	13.0	FR1	0	R1069M
1381.608	2.684	708147	PROB	2.654	n/a	n/a	-999	11	[9, 2, 1]	12.0	FR1	0	R1069M
1384.292	5.361	709489	PROB	5.361	n/a	n/a	-999	11	[8, 5, 7]	20.0	FR1	0	R1069M
1389.653	0.007	712169	STOP	n/a	n/a	n/a	-999	11	[-999, -999, -999]	n/a	FR1	0	R1069M
1389.66	1.034	712172	DISTRACT_END	n/a	n/a	n/a	-999	11	[0, 0, 0]	n/a	FR1	0	R1069M
1390.694	1.035	712689	REC_START	n/a	n/a	n/a	-999	11	[0, 0, 0]	n/a	FR1	0	R1069M
1391.729	2.369	713207	REC_WORD	1.035	n/a	STICK	9	11	[0, 0, 0]	n/a	FR1	0	R1069M
1394.098	7.926	714391	REC_WORD	3.404	n/a	PEN	8	11	[0, 0, 0]	n/a	FR1	0	R1069M
1402.024	18.68	718354	REC_WORD	11.33	n/a	DOOR	1	11	[0, 0, 0]	n/a	FR1	0	R1069M
1420.704	13.898	727693	REC_END	n/a	n/a	n/a	-999	11	[0, 0, 0]	n/a	FR1	0	R1069M
1434.602	0.0	734642	TRIAL	n/a	n/a	n/a	-999	12	[0, 0, 0]	n/a	FR1	0	R1069M
1434.602	10.0	734642	COUNTDOWN_START	n/a	n/a	n/a	-999	12	[0, 0, 0]	n/a	FR1	0	R1069M
1445.03	0.007	739855	COUNTDOWN_END	n/a	n/a	n/a	-999	12	[0, 0, 0]	n/a	FR1	0	R1069M
1445.037	1.6	739859	ORIENT	n/a	n/a	n/a	-999	12	[0, 0, 0]	n/a	FR1	0	R1069M
1447.521	1.6	741101	WORD	n/a	wordpools/wordpool_EN.txt	TENT	1	12	[0, 0, 0]	n/a	FR1	0	R1069M
1450.005	1.6	742342	WORD	n/a	wordpools/wordpool_EN.txt	STOOL	2	12	[0, 0, 0]	n/a	FR1	0	R1069M
1452.605	1.6	743642	WORD	n/a	wordpools/wordpool_EN.txt	HORN	3	12	[0, 0, 0]	n/a	FR1	0	R1069M
1455.072	1.6	744876	WORD	n/a	wordpools/wordpool_EN.txt	SHIRT	4	12	[0, 0, 0]	n/a	FR1	0	R1069M
1457.673	1.6	746176	WORD	n/a	wordpools/wordpool_EN.txt	YARD	5	12	[0, 0, 0]	n/a	FR1	0	R1069M
1460.258	1.6	747469	WORD	n/a	wordpools/wordpool_EN.txt	BOWL	6	12	[0, 0, 0]	n/a	FR1	0	R1069M
1462.84	1.6	748759	WORD	n/a	wordpools/wordpool_EN.txt	SEAT	7	12	[0, 0, 0]	n/a	FR1	0	R1069M
1465.341	1.6	750010	WORD	n/a	wordpools/wordpool_EN.txt	SLUSH	8	12	[0, 0, 0]	n/a	FR1	0	R1069M
1467.925	1.6	751302	WORD	n/a	wordpools/wordpool_EN.txt	CHALK	9	12	[0, 0, 0]	n/a	FR1	0	R1069M
1470.459	1.6	752569	WORD	n/a	wordpools/wordpool_EN.txt	PLATE	10	12	[0, 0, 0]	n/a	FR1	0	R1069M
1472.942	1.6	753810	WORD	n/a	wordpools/wordpool_EN.txt	PANTS	11	12	[0, 0, 0]	n/a	FR1	0	R1069M
1475.493	1.6	755085	WORD	n/a	wordpools/wordpool_EN.txt	BAND	12	12	[0, 0, 0]	n/a	FR1	0	R1069M
1477.11	0.001	755894	DISTRACT_START	n/a	n/a	n/a	-999	12	[0, 0, 0]	n/a	FR1	0	R1069M
1477.111	0.016	755894	START	n/a	n/a	n/a	-999	12	[-999, -999, -999]	n/a	FR1	0	R1069M
1477.127	4.6	755902	PROB	4.566	n/a	n/a	-999	12	[3, 8, 9]	20.0	FR1	0	R1069M
1481.727	7.419	758202	PROB	7.39	n/a	n/a	-999	12	[9, 8, 3]	20.0	FR1	0	R1069M
1489.146	2.35	761911	PROB	2.323	n/a	n/a	-999	12	[2, 8, 1]	11.0	FR1	0	R1069M
1491.496	3.851	763086	PROB	3.821	n/a	n/a	-999	12	[9, 5, 2]	16.0	FR1	0	R1069M
1495.347	5.61	765012	PROB	5.61	n/a	n/a	-999	12	[4, 2, 9]	15.0	FR1	0	R1069M
1500.957	0.008	767816	STOP	n/a	n/a	n/a	-999	12	[-999, -999, -999]	n/a	FR1	0	R1069M
1500.965	1.084	767820	DISTRACT_END	n/a	n/a	n/a	-999	12	[0, 0, 0]	n/a	FR1	0	R1069M
1502.049	1.391	768362	REC_START	n/a	n/a	n/a	-999	12	[0, 0, 0]	n/a	FR1	0	R1069M
1503.44	1.589	769058	REC_WORD	1.391	n/a	TENT	1	12	[0, 0, 0]	n/a	FR1	0	R1069M
1505.029	1.872	769852	REC_WORD	2.98	n/a	YARD	5	12	[0, 0, 0]	n/a	FR1	0	R1069M
1506.901	3.744	770788	REC_WORD	4.852	n/a	STOOL	2	12	[0, 0, 0]	n/a	FR1	0	R1069M
1510.645	21.414	772660	REC_WORD	8.596	n/a	CHAIR	-999	12	[0, 0, 0]	n/a	FR1	0	R1069M
1532.059	13.481	783366	REC_END	n/a	n/a	n/a	-999	12	[0, 0, 0]	n/a	FR1	0	R1069M
1545.54	10.0	790106	COUNTDOWN_START	n/a	n/a	n/a	-999	13	[0, 0, 0]	n/a	FR1	0	R1069M
1545.54	10.428	790106	TRIAL	n/a	n/a	n/a	-999	13	[0, 0, 0]	n/a	FR1	0	R1069M
1555.968	0.007	795320	COUNTDOWN_END	n/a	n/a	n/a	-999	13	[0, 0, 0]	n/a	FR1	0	R1069M
1555.975	1.6	795323	ORIENT	n/a	n/a	n/a	-999	13	[0, 0, 0]	n/a	FR1	0	R1069M
1558.476	1.6	796574	WORD	n/a	wordpools/wordpool_EN.txt	BEAN	1	13	[0, 0, 0]	n/a	FR1	0	R1069M
1561.076	1.6	797873	WORD	n/a	wordpools/wordpool_EN.txt	BIRD	2	13	[0, 0, 0]	n/a	FR1	0	R1069M
1563.643	1.6	799157	WORD	n/a	wordpools/wordpool_EN.txt	FOOT	3	13	[0, 0, 0]	n/a	FR1	0	R1069M
1566.01	1.6	800340	WORD	n/a	wordpools/wordpool_EN.txt	BEAK	4	13	[0, 0, 0]	n/a	FR1	0	R1069M
1568.528	1.6	801599	WORD	n/a	wordpools/wordpool_EN.txt	PLANT	5	13	[0, 0, 0]	n/a	FR1	0	R1069M
1570.978	1.6	802824	WORD	n/a	wordpools/wordpool_EN.txt	BLOOM	6	13	[0, 0, 0]	n/a	FR1	0	R1069M
1573.462	1.6	804066	WORD	n/a	wordpools/wordpool_EN.txt	ANT	7	13	[0, 0, 0]	n/a	FR1	0	R1069M
1575.929	1.6	805299	WORD	n/a	wordpools/wordpool_EN.txt	BEE	8	13	[0, 0, 0]	n/a	FR1	0	R1069M
1578.446	1.6	806558	WORD	n/a	wordpools/wordpool_EN.txt	FOOD	9	13	[0, 0, 0]	n/a	FR1	0	R1069M
1580.88	1.6	807775	WORD	n/a	wordpools/wordpool_EN.txt	BREAD	10	13	[0, 0, 0]	n/a	FR1	0	R1069M
1583.48	1.6	809075	WORD	n/a	wordpools/wordpool_EN.txt	RICE	11	13	[0, 0, 0]	n/a	FR1	0	R1069M
1586.048	1.6	810358	WORD	n/a	wordpools/wordpool_EN.txt	TREE	12	13	[0, 0, 0]	n/a	FR1	0	R1069M
1587.665	0.0	811167	DISTRACT_START	n/a	n/a	n/a	-999	13	[0, 0, 0]	n/a	FR1	0	R1069M
1587.665	0.016	811167	START	n/a	n/a	n/a	-999	13	[-999, -999, -999]	n/a	FR1	0	R1069M
1587.681	4.569	811175	PROB	4.533	n/a	n/a	-999	13	[1, 2, 5]	8.0	FR1	0	R1069M
1592.25	4.716	813459	PROB	4.683	n/a	n/a	-999	13	[9, 8, 4]	17.0	FR1	0	R1069M
1596.966	3.118	815817	PROB	3.095	n/a	n/a	-999	13	[1, 8, 3]	12.0	FR1	0	R1069M
1600.084	3.334	817376	PROB	3.313	n/a	n/a	-999	13	[5, 6, 7]	18.0	FR1	0	R1069M
1603.418	3.117	819043	PROB	3.091	n/a	n/a	-999	13	[5, 2, 6]	13.0	FR1	0	R1069M
1606.535	5.83	820601	PROB	5.83	n/a	n/a	-999	13	[8, 9, 8]	25.0	FR1	0	R1069M
1612.365	0.004	823516	STOP	n/a	n/a	n/a	-999	13	[-999, -999, -999]	n/a	FR1	0	R1069M
1612.369	1.201	823518	DISTRACT_END	n/a	n/a	n/a	-999	13	[0, 0, 0]	n/a	FR1	0	R1069M
1613.57	1.357	824118	REC_START	n/a	n/a	n/a	-999	13	[0, 0, 0]	n/a	FR1	0	R1069M
1614.927	2.063	824797	REC_WORD	1.357	n/a	BEAN	1	13	[0, 0, 0]	n/a	FR1	0	R1069M
1616.99	11.26	825828	REC_WORD	3.42	n/a	TREE	12	13	[0, 0, 0]	n/a	FR1	0	R1069M
1628.25	3.485	831458	REC_WORD	14.68	n/a	BEE	8	13	[0, 0, 0]	n/a	FR1	0	R1069M
1631.735	11.849	833200	REC_WORD	18.165	n/a	ANT	7	13	[0, 0, 0]	n/a	FR1	0	R1069M
1643.584	30.947	839124	REC_END	n/a	n/a	n/a	-999	13	[0, 0, 0]	n/a	FR1	0	R1069M
1674.531	10.0	854596	COUNTDOWN_START	n/a	n/a	n/a	-999	14	[0, 0, 0]	n/a	FR1	0	R1069M
1674.532	10.427	854597	TRIAL	n/a	n/a	n/a	-999	14	[0, 0, 0]	n/a	FR1	0	R1069M
1684.959	0.008	859810	COUNTDOWN_END	n/a	n/a	n/a	-999	14	[0, 0, 0]	n/a	FR1	0	R1069M
1684.967	1.6	859814	ORIENT	n/a	n/a	n/a	-999	14	[0, 0, 0]	n/a	FR1	0	R1069M
1687.451	1.6	861056	WORD	n/a	wordpools/wordpool_EN.txt	PHONE	1	14	[0, 0, 0]	n/a	FR1	0	R1069M
1689.901	1.6	862281	WORD	n/a	wordpools/wordpool_EN.txt	GRAPE	2	14	[0, 0, 0]	n/a	FR1	0	R1069M
1692.285	1.6	863473	WORD	n/a	wordpools/wordpool_EN.txt	KITE	3	14	[0, 0, 0]	n/a	FR1	0	R1069M
1694.902	1.6	864781	WORD	n/a	wordpools/wordpool_EN.txt	CONE	4	14	[0, 0, 0]	n/a	FR1	0	R1069M
1697.486	1.6	866073	WORD	n/a	wordpools/wordpool_EN.txt	LOCK	5	14	[0, 0, 0]	n/a	FR1	0	R1069M
1700.07	1.6	867365	WORD	n/a	wordpools/wordpool_EN.txt	MILK	6	14	[0, 0, 0]	n/a	FR1	0	R1069M
1702.62	1.6	868640	WORD	n/a	wordpools/wordpool_EN.txt	MOUSE	7	14	[0, 0, 0]	n/a	FR1	0	R1069M
1705.037	1.6	869848	WORD	n/a	wordpools/wordpool_EN.txt	CROWN	8	14	[0, 0, 0]	n/a	FR1	0	R1069M
1707.504	1.6	871082	WORD	n/a	wordpools/wordpool_EN.txt	PEAR	9	14	[0, 0, 0]	n/a	FR1	0	R1069M
1709.972	1.6	872315	WORD	n/a	wordpools/wordpool_EN.txt	SNAKE	10	14	[0, 0, 0]	n/a	FR1	0	R1069M
1712.422	1.6	873540	WORD	n/a	wordpools/wordpool_EN.txt	SHOE	11	14	[0, 0, 0]	n/a	FR1	0	R1069M
1714.906	1.6	874782	WORD	n/a	wordpools/wordpool_EN.txt	PEARL	12	14	[0, 0, 0]	n/a	FR1	0	R1069M
1716.523	0.001	875591	DISTRACT_START	n/a	n/a	n/a	-999	14	[0, 0, 0]	n/a	FR1	0	R1069M
1716.524	0.016	875591	START	n/a	n/a	n/a	-999	14	[-999, -999, -999]	n/a	FR1	0	R1069M
1716.54	3.484	875599	PROB	3.457	n/a	n/a	-999	14	[9, 1, 2]	12.0	FR1	0	R1069M
1720.024	3.367	877341	PROB	3.333	n/a	n/a	-999	14	[2, 1, 7]	10.0	FR1	0	R1069M
1723.391	4.484	879024	PROB	4.454	n/a	n/a	-999	14	[5, 7, 5]	17.0	FR1	0	R1069M
1727.875	5.251	881266	PROB	5.218	n/a	n/a	-999	14	[3, 6, 1]	10.0	FR1	0	R1069M
1733.126	3.052	883891	PROB	3.023	n/a	n/a	-999	14	[9, 9, 4]	22.0	FR1	0	R1069M
1736.178	4.403	885417	PROB	4.403	n/a	n/a	-999	14	[3, 9, 8]	20.0	FR1	0	R1069M
1740.581	0.013	887619	STOP	n/a	n/a	n/a	-999	14	[-999, -999, -999]	n/a	FR1	0	R1069M
1740.594	1.184	887625	DISTRACT_END	n/a	n/a	n/a	-999	14	[0, 0, 0]	n/a	FR1	0	R1069M
1741.778	1.208	888217	REC_START	n/a	n/a	n/a	-999	14	[0, 0, 0]	n/a	FR1	0	R1069M
1742.986	2.167	888821	REC_WORD	1.208	n/a	PHONE	1	14	[0, 0, 0]	n/a	FR1	0	R1069M
1745.153	2.152	889904	REC_WORD	3.375	n/a	CONE	4	14	[0, 0, 0]	n/a	FR1	0	R1069M
1747.305	24.483	890980	REC_WORD	5.527	n/a	GRAPE	2	14	[0, 0, 0]	n/a	FR1	0	R1069M
1771.788	6.53	903221	REC_END	n/a	n/a	n/a	-999	14	[0, 0, 0]	n/a	FR1	0	R1069M
1778.318	10.0	906486	COUNTDOWN_START	n/a	n/a	n/a	-999	15	[0, 0, 0]	n/a	FR1	0	R1069M
1778.318	10.428	906486	TRIAL	n/a	n/a	n/a	-999	15	[0, 0, 0]	n/a	FR1	0	R1069M
1788.746	0.008	911699	COUNTDOWN_END	n/a	n/a	n/a	-999	15	[0, 0, 0]	n/a	FR1	0	R1069M
1788.754	1.6	911703	ORIENT	n/a	n/a	n/a	-999	15	[0, 0, 0]	n/a	FR1	0	R1069M
1791.238	1.6	912945	WORD	n/a	wordpools/wordpool_EN.txt	CHIN	1	15	[0, 0, 0]	n/a	FR1	0	R1069M
1793.704	1.6	914178	WORD	n/a	wordpools/wordpool_EN.txt	SEED	2	15	[0, 0, 0]	n/a	FR1	0	R1069M
1796.223	1.6	915437	WORD	n/a	wordpools/wordpool_EN.txt	SOUP	3	15	[0, 0, 0]	n/a	FR1	0	R1069M
1798.739	1.6	916695	WORD	n/a	wordpools/wordpool_EN.txt	VINE	4	15	[0, 0, 0]	n/a	FR1	0	R1069M
1801.224	1.6	917938	WORD	n/a	wordpools/wordpool_EN.txt	CHAIR	5	15	[0, 0, 0]	n/a	FR1	0	R1069M
1803.79	1.6	919221	WORD	n/a	wordpools/wordpool_EN.txt	BRANCH	6	15	[0, 0, 0]	n/a	FR1	0	R1069M
1806.29	1.6	920471	WORD	n/a	wordpools/wordpool_EN.txt	FUDGE	7	15	[0, 0, 0]	n/a	FR1	0	R1069M
1808.69	1.6	921670	WORD	n/a	wordpools/wordpool_EN.txt	FRUIT	8	15	[0, 0, 0]	n/a	FR1	0	R1069M
1811.125	1.6	922888	WORD	n/a	wordpools/wordpool_EN.txt	JUICE	9	15	[0, 0, 0]	n/a	FR1	0	R1069M
1813.758	1.6	924204	WORD	n/a	wordpools/wordpool_EN.txt	TOE	10	15	[0, 0, 0]	n/a	FR1	0	R1069M
1816.276	1.6	925463	WORD	n/a	wordpools/wordpool_EN.txt	PIT	11	15	[0, 0, 0]	n/a	FR1	0	R1069M
1818.659	1.6	926655	WORD	n/a	wordpools/wordpool_EN.txt	STEAK	12	15	[0, 0, 0]	n/a	FR1	0	R1069M
1820.26	0.001	927455	DISTRACT_START	n/a	n/a	n/a	-999	15	[0, 0, 0]	n/a	FR1	0	R1069M
1820.261	0.015	927455	START	n/a	n/a	n/a	-999	15	[-999, -999, -999]	n/a	FR1	0	R1069M
1820.276	4.868	927463	PROB	4.841	n/a	n/a	-999	15	[1, 3, 5]	9.0	FR1	0	R1069M
1825.144	3.667	929897	PROB	3.637	n/a	n/a	-999	15	[8, 6, 3]	17.0	FR1	0	R1069M
1828.811	3.468	931730	PROB	3.443	n/a	n/a	-999	15	[6, 8, 4]	18.0	FR1	0	R1069M
1832.279	3.0	933464	PROB	2.975	n/a	n/a	-999	15	[7, 6, 9]	22.0	FR1	0	R1069M
1835.279	4.534	934964	PROB	4.51	n/a	n/a	-999	15	[5, 1, 6]	12.0	FR1	0	R1069M
1839.813	2.952	937231	PROB	2.952	n/a	n/a	-999	15	[1, 6, 2]	9.0	FR1	0	R1069M
1842.765	0.016	938707	STOP	n/a	n/a	n/a	-999	15	[-999, -999, -999]	n/a	FR1	0	R1069M
1842.781	1.05	938715	DISTRACT_END	n/a	n/a	n/a	-999	15	[0, 0, 0]	n/a	FR1	0	R1069M
1843.831	1.406	939240	REC_START	n/a	n/a	n/a	-999	15	[0, 0, 0]	n/a	FR1	0	R1069M
1845.237	2.052	939942	REC_WORD	1.406	n/a	SEED	2	15	[0, 0, 0]	n/a	FR1	0	R1069M
1847.289	1.871	940968	REC_WORD	3.458	n/a	GRAPE	-999	15	[0, 0, 0]	n/a	FR1	0	R1069M
1849.16	9.649	941904	REC_WORD	5.329	n/a	PIT	11	15	[0, 0, 0]	n/a	FR1	0	R1069M
1858.809	1.65	946728	REC_WORD	14.978	n/a	JUICE	9	15	[0, 0, 0]	n/a	FR1	0	R1069M
1860.459	13.395	947553	REC_WORD	16.628	n/a	FRUIT	8	15	[0, 0, 0]	n/a	FR1	0	R1069M
1873.854	11.403	954250	REC_END	n/a	n/a	n/a	-999	15	[0, 0, 0]	n/a	FR1	0	R1069M
1885.257	0.0	959951	TRIAL	n/a	n/a	n/a	-999	16	[0, 0, 0]	n/a	FR1	0	R1069M
1885.257	10.0	959951	COUNTDOWN_START	n/a	n/a	n/a	-999	16	[0, 0, 0]	n/a	FR1	0	R1069M
1895.685	0.006	965164	COUNTDOWN_END	n/a	n/a	n/a	-999	16	[0, 0, 0]	n/a	FR1	0	R1069M
1895.691	1.6	965167	ORIENT	n/a	n/a	n/a	-999	16	[0, 0, 0]	n/a	FR1	0	R1069M
1898.291	1.6	966467	WORD	n/a	wordpools/wordpool_EN.txt	SUN	1	16	[0, 0, 0]	n/a	FR1	0	R1069M
1900.792	1.6	967718	WORD	n/a	wordpools/wordpool_EN.txt	CAPE	2	16	[0, 0, 0]	n/a	FR1	0	R1069M
1903.359	1.6	969001	WORD	n/a	wordpools/wordpool_EN.txt	BATH	3	16	[0, 0, 0]	n/a	FR1	0	R1069M
1905.826	1.6	970234	WORD	n/a	wordpools/wordpool_EN.txt	SAIL	4	16	[0, 0, 0]	n/a	FR1	0	R1069M
1908.228	1.6	971435	WORD	n/a	wordpools/wordpool_EN.txt	LEG	5	16	[0, 0, 0]	n/a	FR1	0	R1069M
1910.66	1.6	972651	WORD	n/a	wordpools/wordpool_EN.txt	ROSE	6	16	[0, 0, 0]	n/a	FR1	0	R1069M
1913.078	1.6	973860	WORD	n/a	wordpools/wordpool_EN.txt	RUG	7	16	[0, 0, 0]	n/a	FR1	0	R1069M
1915.628	1.6	975135	WORD	n/a	wordpools/wordpool_EN.txt	MOOSE	8	16	[0, 0, 0]	n/a	FR1	0	R1069M
1918.162	1.6	976402	WORD	n/a	wordpools/wordpool_EN.txt	BOAT	9	16	[0, 0, 0]	n/a	FR1	0	R1069M
1920.712	1.6	977677	WORD	n/a	wordpools/wordpool_EN.txt	ICE	10	16	[0, 0, 0]	n/a	FR1	0	R1069M
1923.096	1.6	978869	WORD	n/a	wordpools/wordpool_EN.txt	CAKE	11	16	[0, 0, 0]	n/a	FR1	0	R1069M
1925.58	1.6	980111	WORD	n/a	wordpools/wordpool_EN.txt	FENCE	12	16	[0, 0, 0]	n/a	FR1	0	R1069M
1927.198	0.001	980920	DISTRACT_START	n/a	n/a	n/a	-999	16	[0, 0, 0]	n/a	FR1	0	R1069M
1927.199	0.016	980920	START	n/a	n/a	n/a	-999	16	[-999, -999, -999]	n/a	FR1	0	R1069M
1927.215	4.216	980928	PROB	4.19	n/a	n/a	-999	16	[2, 9, 4]	15.0	FR1	0	R1069M
1931.431	3.918	983036	PROB	3.886	n/a	n/a	-999	16	[6, 5, 9]	20.0	FR1	0	R1069M
1935.349	4.217	984995	PROB	4.192	n/a	n/a	-999	16	[3, 9, 7]	17.0	FR1	0	R1069M
1939.566	2.685	987103	PROB	2.664	n/a	n/a	-999	16	[5, 1, 6]	12.0	FR1	0	R1069M
1942.251	3.283	988446	PROB	3.258	n/a	n/a	-999	16	[3, 2, 2]	7.0	FR1	0	R1069M
1945.534	4.351	990087	PROB	4.351	n/a	n/a	-999	16	[8, 9, 7]	24.0	FR1	0	R1069M
1949.885	0.016	992262	STOP	n/a	n/a	n/a	-999	16	[-999, -999, -999]	n/a	FR1	0	R1069M
1949.901	1.068	992270	DISTRACT_END	n/a	n/a	n/a	-999	16	[0, 0, 0]	n/a	FR1	0	R1069M
1950.969	1.075	992804	REC_START	n/a	n/a	n/a	-999	16	[0, 0, 0]	n/a	FR1	0	R1069M
1952.044	2.155	993342	REC_WORD	1.075	n/a	SUN	1	16	[0, 0, 0]	n/a	FR1	0	R1069M
1954.199	26.78	994419	REC_WORD	3.23	n/a	RAKE	-999	16	[0, 0, 0]	n/a	FR1	0	R1069M
1980.979	35.569	1007808	REC_END	n/a	n/a	n/a	-999	16	[0, 0, 0]	n/a	FR1	0	R1069M
2016.548	0.0	1025591	TRIAL	n/a	n/a	n/a	-999	17	[0, 0, 0]	n/a	FR1	0	R1069M
2016.548	10.0	1025591	COUNTDOWN_START	n/a	n/a	n/a	-999	17	[0, 0, 0]	n/a	FR1	0	R1069M
2026.976	0.007	1030805	COUNTDOWN_END	n/a	n/a	n/a	-999	17	[0, 0, 0]	n/a	FR1	0	R1069M
2026.983	1.6	1030808	ORIENT	n/a	n/a	n/a	-999	17	[0, 0, 0]	n/a	FR1	0	R1069M
2029.6	1.6	1032116	WORD	n/a	wordpools/wordpool_EN.txt	MOTH	1	17	[0, 0, 0]	n/a	FR1	0	R1069M
2031.984	1.6	1033308	WORD	n/a	wordpools/wordpool_EN.txt	WING	2	17	[0, 0, 0]	n/a	FR1	0	R1069M
2034.468	1.6	1034550	WORD	n/a	wordpools/wordpool_EN.txt	RIB	3	17	[0, 0, 0]	n/a	FR1	0	R1069M
2037.018	1.6	1035825	WORD	n/a	wordpools/wordpool_EN.txt	THREAD	4	17	[0, 0, 0]	n/a	FR1	0	R1069M
2039.435	1.6	1037034	WORD	n/a	wordpools/wordpool_EN.txt	NET	5	17	[0, 0, 0]	n/a	FR1	0	R1069M
2041.952	1.6	1038292	WORD	n/a	wordpools/wordpool_EN.txt	POND	6	17	[0, 0, 0]	n/a	FR1	0	R1069M
2044.436	1.6	1039534	WORD	n/a	wordpools/wordpool_EN.txt	SNAIL	7	17	[0, 0, 0]	n/a	FR1	0	R1069M
2046.92	1.6	1040776	WORD	n/a	wordpools/wordpool_EN.txt	FISH	8	17	[0, 0, 0]	n/a	FR1	0	R1069M
2049.371	1.6	1042001	WORD	n/a	wordpools/wordpool_EN.txt	STRING	9	17	[0, 0, 0]	n/a	FR1	0	R1069M
2051.804	1.6	1043218	WORD	n/a	wordpools/wordpool_EN.txt	HAND	10	17	[0, 0, 0]	n/a	FR1	0	R1069M
2054.206	1.6	1044418	WORD	n/a	wordpools/wordpool_EN.txt	OWL	11	17	[0, 0, 0]	n/a	FR1	0	R1069M
2056.689	1.6	1045660	WORD	n/a	wordpools/wordpool_EN.txt	SKUNK	12	17	[0, 0, 0]	n/a	FR1	0	R1069M
2058.306	0.001	1046468	DISTRACT_START	n/a	n/a	n/a	-999	17	[0, 0, 0]	n/a	FR1	0	R1069M
2058.307	0.015	1046469	START	n/a	n/a	n/a	-999	17	[-999, -999, -999]	n/a	FR1	0	R1069M
2058.322	4.951	1046476	PROB	4.932	n/a	n/a	-999	17	[7, 4, 9]	20.0	FR1	0	R1069M
2063.273	3.851	1048952	PROB	3.82	n/a	n/a	-999	17	[8, 8, 9]	25.0	FR1	0	R1069M
2067.124	3.601	1050877	PROB	3.569	n/a	n/a	-999	17	[5, 1, 3]	9.0	FR1	0	R1069M
2070.725	4.567	1052677	PROB	4.537	n/a	n/a	-999	17	[6, 2, 2]	10.0	FR1	0	R1069M
2075.292	5.017	1054961	PROB	5.017	n/a	n/a	-999	17	[6, 8, 4]	18.0	FR1	0	R1069M
2080.309	0.018	1057469	STOP	n/a	n/a	n/a	-999	17	[-999, -999, -999]	n/a	FR1	0	R1069M
2080.327	1.034	1057478	DISTRACT_END	n/a	n/a	n/a	-999	17	[0, 0, 0]	n/a	FR1	0	R1069M
2081.361	0.944	1057995	REC_START	n/a	n/a	n/a	-999	17	[0, 0, 0]	n/a	FR1	0	R1069M
2082.305	1.821	1058467	REC_WORD	0.944	n/a	STRING	9	17	[0, 0, 0]	n/a	FR1	0	R1069M
2084.126	1.952	1059377	REC_WORD	2.765	n/a	THREAD	4	17	[0, 0, 0]	n/a	FR1	0	R1069M
2086.078	1.741	1060353	REC_WORD	4.717	n/a	MOTH	1	17	[0, 0, 0]	n/a	FR1	0	R1069M
2087.819	1.778	1061224	REC_WORD	6.458	n/a	WING	2	17	[0, 0, 0]	n/a	FR1	0	R1069M
2089.597	21.774	1062113	REC_WORD	8.236	n/a	POND	6	17	[0, 0, 0]	n/a	FR1	0	R1069M
2111.371	8.413	1072999	REC_END	n/a	n/a	n/a	-999	17	[0, 0, 0]	n/a	FR1	0	R1069M
2119.784	0.0	1077205	TRIAL	n/a	n/a	n/a	-999	18	[0, 0, 0]	n/a	FR1	0	R1069M
2119.784	10.0	1077205	COUNTDOWN_START	n/a	n/a	n/a	-999	18	[0, 0, 0]	n/a	FR1	0	R1069M
2130.212	0.009	1082418	COUNTDOWN_END	n/a	n/a	n/a	-999	18	[0, 0, 0]	n/a	FR1	0	R1069M
2130.221	1.6	1082423	ORIENT	n/a	n/a	n/a	-999	18	[0, 0, 0]	n/a	FR1	0	R1069M
2132.637	1.6	1083631	WORD	n/a	wordpools/wordpool_EN.txt	GATE	1	18	[0, 0, 0]	n/a	FR1	0	R1069M
2135.222	1.6	1084923	WORD	n/a	wordpools/wordpool_EN.txt	HILL	2	18	[0, 0, 0]	n/a	FR1	0	R1069M
2137.738	1.6	1086181	WORD	n/a	wordpools/wordpool_EN.txt	MULE	3	18	[0, 0, 0]	n/a	FR1	0	R1069M
2140.322	1.6	1087473	WORD	n/a	wordpools/wordpool_EN.txt	NEST	4	18	[0, 0, 0]	n/a	FR1	0	R1069M
2142.705	1.6	1088664	WORD	n/a	wordpools/wordpool_EN.txt	DOG	5	18	[0, 0, 0]	n/a	FR1	0	R1069M
2145.122	1.6	1089873	WORD	n/a	wordpools/wordpool_EN.txt	GEESE	6	18	[0, 0, 0]	n/a	FR1	0	R1069M
2147.673	1.6	1091148	WORD	n/a	wordpools/wordpool_EN.txt	CHIEF	7	18	[0, 0, 0]	n/a	FR1	0	R1069M
2150.173	1.6	1092398	WORD	n/a	wordpools/wordpool_EN.txt	EEL	8	18	[0, 0, 0]	n/a	FR1	0	R1069M
2152.757	1.6	1093690	WORD	n/a	wordpools/wordpool_EN.txt	GOAT	9	18	[0, 0, 0]	n/a	FR1	0	R1069M
2155.291	1.6	1094957	WORD	n/a	wordpools/wordpool_EN.txt	SKY	10	18	[0, 0, 0]	n/a	FR1	0	R1069M
2157.792	1.6	1096207	WORD	n/a	wordpools/wordpool_EN.txt	DUCK	11	18	[0, 0, 0]	n/a	FR1	0	R1069M
2160.275	1.6	1097449	WORD	n/a	wordpools/wordpool_EN.txt	SWORD	12	18	[0, 0, 0]	n/a	FR1	0	R1069M
2161.892	0.001	1098257	DISTRACT_START	n/a	n/a	n/a	-999	18	[0, 0, 0]	n/a	FR1	0	R1069M
2161.893	0.016	1098258	START	n/a	n/a	n/a	-999	18	[-999, -999, -999]	n/a	FR1	0	R1069M
2161.909	4.468	1098266	PROB	4.44	n/a	n/a	-999	18	[1, 4, 7]	12.0	FR1	0	R1069M
2166.377	2.4	1100499	PROB	2.372	n/a	n/a	-999	18	[1, 3, 7]	11.0	FR1	0	R1069M
2168.777	3.251	1101699	PROB	3.22	n/a	n/a	-999	18	[1, 6, 5]	13.0	FR1	0	R1069M
2172.028	2.934	1103325	PROB	2.905	n/a	n/a	-999	18	[7, 3, 2]	12.0	FR1	0	R1069M
2174.962	5.434	1104792	PROB	5.403	n/a	n/a	-999	18	[5, 4, 1]	10.0	FR1	0	R1069M
2180.396	4.289	1107508	PROB	4.289	n/a	n/a	-999	18	[1, 3, 6]	10.0	FR1	0	R1069M
2184.685	0.012	1109653	STOP	n/a	n/a	n/a	-999	18	[-999, -999, -999]	n/a	FR1	0	R1069M
2184.697	1.134	1109659	DISTRACT_END	n/a	n/a	n/a	-999	18	[0, 0, 0]	n/a	FR1	0	R1069M
2185.831	0.866	1110226	REC_START	n/a	n/a	n/a	-999	18	[0, 0, 0]	n/a	FR1	0	R1069M
2186.697	2.058	1110659	REC_WORD	0.866	n/a	MULE	3	18	[0, 0, 0]	n/a	FR1	0	R1069M
2188.755	1.868	1111688	REC_WORD	2.924	n/a	GATE	1	18	[0, 0, 0]	n/a	FR1	0	R1069M
2190.623	1.87	1112621	REC_WORD	4.792	n/a	HILL	2	18	[0, 0, 0]	n/a	FR1	0	R1069M
2192.493	23.348	1113556	REC_WORD	6.662	n/a	EEL	8	18	[0, 0, 0]	n/a	FR1	0	R1069M
2215.841	6.113	1125229	REC_END	n/a	n/a	n/a	-999	18	[0, 0, 0]	n/a	FR1	0	R1069M
2221.954	0.0	1128286	TRIAL	n/a	n/a	n/a	-999	19	[0, 0, 0]	n/a	FR1	0	R1069M
2221.954	10.0	1128286	COUNTDOWN_START	n/a	n/a	n/a	-999	19	[0, 0, 0]	n/a	FR1	0	R1069M
2232.382	0.007	1133499	COUNTDOWN_END	n/a	n/a	n/a	-999	19	[0, 0, 0]	n/a	FR1	0	R1069M
2232.389	1.6	1133503	ORIENT	n/a	n/a	n/a	-999	19	[0, 0, 0]	n/a	FR1	0	R1069M
2234.956	1.6	1134786	WORD	n/a	wordpools/wordpool_EN.txt	MOUTH	1	19	[0, 0, 0]	n/a	FR1	0	R1069M
2237.357	1.6	1135987	WORD	n/a	wordpools/wordpool_EN.txt	DOLL	2	19	[0, 0, 0]	n/a	FR1	0	R1069M
2239.807	1.6	1137211	WORD	n/a	wordpools/wordpool_EN.txt	SEAL	3	19	[0, 0, 0]	n/a	FR1	0	R1069M
2242.242	1.6	1138429	WORD	n/a	wordpools/wordpool_EN.txt	WEED	4	19	[0, 0, 0]	n/a	FR1	0	R1069M
2244.692	1.6	1139654	WORD	n/a	wordpools/wordpool_EN.txt	CLOWN	5	19	[0, 0, 0]	n/a	FR1	0	R1069M
2247.142	1.6	1140879	WORD	n/a	wordpools/wordpool_EN.txt	TIE	6	19	[0, 0, 0]	n/a	FR1	0	R1069M
2249.659	1.6	1142137	WORD	n/a	wordpools/wordpool_EN.txt	PET	7	19	[0, 0, 0]	n/a	FR1	0	R1069M
2252.211	1.6	1143413	WORD	n/a	wordpools/wordpool_EN.txt	CLOTH	8	19	[0, 0, 0]	n/a	FR1	0	R1069M
2254.727	1.6	1144671	WORD	n/a	wordpools/wordpool_EN.txt	FAN	9	19	[0, 0, 0]	n/a	FR1	0	R1069M
2257.178	1.6	1145896	WORD	n/a	wordpools/wordpool_EN.txt	WOLF	10	19	[0, 0, 0]	n/a	FR1	0	R1069M
2259.628	1.6	1147121	WORD	n/a	wordpools/wordpool_EN.txt	RAT	11	19	[0, 0, 0]	n/a	FR1	0	R1069M
2262.028	1.6	1148321	WORD	n/a	wordpools/wordpool_EN.txt	SOCK	12	19	[0, 0, 0]	n/a	FR1	0	R1069M
2263.645	0.001	1149130	DISTRACT_START	n/a	n/a	n/a	-999	19	[0, 0, 0]	n/a	FR1	0	R1069M
2263.646	0.016	1149130	START	n/a	n/a	n/a	-999	19	[-999, -999, -999]	n/a	FR1	0	R1069M
2263.662	5.234	1149138	PROB	5.198	n/a	n/a	-999	19	[6, 8, 5]	19.0	FR1	0	R1069M
2268.896	5.985	1151755	PROB	5.957	n/a	n/a	-999	19	[5, 8, 9]	22.0	FR1	0	R1069M
2274.881	2.6	1154747	PROB	2.572	n/a	n/a	-999	19	[4, 1, 6]	11.0	FR1	0	R1069M
2277.481	3.468	1156047	PROB	3.444	n/a	n/a	-999	19	[7, 4, 6]	17.0	FR1	0	R1069M
2280.949	2.936	1157781	PROB	2.936	n/a	n/a	-999	19	[7, 4, 2]	13.0	FR1	0	R1069M
2283.885	0.014	1159249	STOP	n/a	n/a	n/a	-999	19	[-999, -999, -999]	n/a	FR1	0	R1069M
2283.899	1.101	1159256	DISTRACT_END	n/a	n/a	n/a	-999	19	[0, 0, 0]	n/a	FR1	0	R1069M
2285.0	1.202	1159806	REC_START	n/a	n/a	n/a	-999	19	[0, 0, 0]	n/a	FR1	0	R1069M
2286.202	1.786	1160407	REC_WORD	1.202	n/a	PET	7	19	[0, 0, 0]	n/a	FR1	0	R1069M
2287.988	2.173	1161300	REC_WORD	2.988	n/a	WOLF	10	19	[0, 0, 0]	n/a	FR1	0	R1069M
2290.161	3.707	1162386	REC_WORD	5.161	n/a	SEAL	3	19	[0, 0, 0]	n/a	FR1	0	R1069M
2293.868	3.052	1164240	REC_WORD	8.868	n/a	DOG	-999	19	[0, 0, 0]	n/a	FR1	0	R1069M
2296.92	2.026	1165766	REC_WORD	11.92	n/a	MOUTH	1	19	[0, 0, 0]	n/a	FR1	0	R1069M
2298.946	16.068	1166779	REC_WORD	13.946	n/a	WEED	4	19	[0, 0, 0]	n/a	FR1	0	R1069M
2315.014	15.294	1174812	REC_END	n/a	n/a	n/a	-999	19	[0, 0, 0]	n/a	FR1	0	R1069M
2330.308	0.0	1182458	TRIAL	n/a	n/a	n/a	-999	20	[0, 0, 0]	n/a	FR1	0	R1069M
2330.308	10.0	1182458	COUNTDOWN_START	n/a	n/a	n/a	-999	20	[0, 0, 0]	n/a	FR1	0	R1069M
2340.736	0.008	1187672	COUNTDOWN_END	n/a	n/a	n/a	-999	20	[0, 0, 0]	n/a	FR1	0	R1069M
2340.744	1.6	1187676	ORIENT	n/a	n/a	n/a	-999	20	[0, 0, 0]	n/a	FR1	0	R1069M
2343.245	1.6	1188926	WORD	n/a	wordpools/wordpool_EN.txt	THUMB	1	20	[0, 0, 0]	n/a	FR1	0	R1069M
2345.661	1.6	1190134	WORD	n/a	wordpools/wordpool_EN.txt	SLEEVE	2	20	[0, 0, 0]	n/a	FR1	0	R1069M
2348.229	1.6	1191418	WORD	n/a	wordpools/wordpool_EN.txt	FROG	3	20	[0, 0, 0]	n/a	FR1	0	R1069M
2350.779	1.6	1192693	WORD	n/a	wordpools/wordpool_EN.txt	SUIT	4	20	[0, 0, 0]	n/a	FR1	0	R1069M
2353.296	1.6	1193951	WORD	n/a	wordpools/wordpool_EN.txt	BOARD	5	20	[0, 0, 0]	n/a	FR1	0	R1069M
2355.913	1.6	1195260	WORD	n/a	wordpools/wordpool_EN.txt	BRUSH	6	20	[0, 0, 0]	n/a	FR1	0	R1069M
2358.514	1.6	1196560	WORD	n/a	wordpools/wordpool_EN.txt	PIPE	7	20	[0, 0, 0]	n/a	FR1	0	R1069M
2361.098	1.6	1197852	WORD	n/a	wordpools/wordpool_EN.txt	NAIL	8	20	[0, 0, 0]	n/a	FR1	0	R1069M
2363.615	1.6	1199110	WORD	n/a	wordpools/wordpool_EN.txt	PURSE	9	20	[0, 0, 0]	n/a	FR1	0	R1069M
2366.099	1.6	1200352	WORD	n/a	wordpools/wordpool_EN.txt	FORK	10	20	[0, 0, 0]	n/a	FR1	0	R1069M
2368.516	1.6	1201561	WORD	n/a	wordpools/wordpool_EN.txt	BENCH	11	20	[0, 0, 0]	n/a	FR1	0	R1069M
2371.05	1.6	1202828	WORD	n/a	wordpools/wordpool_EN.txt	SINK	12	20	[0, 0, 0]	n/a	FR1	0	R1069M
2372.666	0.001	1203636	DISTRACT_START	n/a	n/a	n/a	-999	20	[0, 0, 0]	n/a	FR1	0	R1069M
2372.667	0.016	1203636	START	n/a	n/a	n/a	-999	20	[-999, -999, -999]	n/a	FR1	0	R1069M
2372.683	4.884	1203644	PROB	4.85	n/a	n/a	-999	20	[5, 6, 8]	19.0	FR1	0	R1069M
2377.567	3.018	1206086	PROB	2.998	n/a	n/a	-999	20	[2, 9, 2]	13.0	FR1	0	R1069M
2380.585	3.384	1207595	PROB	3.348	n/a	n/a	-999	20	[6, 3, 9]	18.0	FR1	0	R1069M
2383.969	2.9	1209287	PROB	2.868	n/a	n/a	-999	20	[2, 4, 1]	7.0	FR1	0	R1069M
2386.869	4.251	1210737	PROB	4.216	n/a	n/a	-999	20	[7, 7, 3]	17.0	FR1	0	R1069M
2391.12	3.741	1212862	PROB	3.741	n/a	n/a	-999	20	[5, 4, 5]	14.0	FR1	0	R1069M
2394.861	0.01	1214732	STOP	n/a	n/a	n/a	-999	20	[-999, -999, -999]	n/a	FR1	0	R1069M
2394.871	1.184	1214737	DISTRACT_END	n/a	n/a	n/a	-999	20	[0, 0, 0]	n/a	FR1	0	R1069M
2396.055	0.941	1215329	REC_START	n/a	n/a	n/a	-999	20	[0, 0, 0]	n/a	FR1	0	R1069M
2396.996	1.916	1215800	REC_WORD	0.941	n/a	SUIT	4	20	[0, 0, 0]	n/a	FR1	0	R1069M
2398.912	27.153	1216758	REC_WORD	2.857	n/a	SLEEVE	2	20	[0, 0, 0]	n/a	FR1	0	R1069M
2426.065	10.447	1230333	REC_END	n/a	n/a	n/a	-999	20	[0, 0, 0]	n/a	FR1	0	R1069M
2436.512	0.0	1235556	TRIAL	n/a	n/a	n/a	-999	21	[0, 0, 0]	n/a	FR1	0	R1069M
2436.512	10.0	1235556	COUNTDOWN_START	n/a	n/a	n/a	-999	21	[0, 0, 0]	n/a	FR1	0	R1069M
2446.94	0.008	1240770	COUNTDOWN_END	n/a	n/a	n/a	-999	21	[0, 0, 0]	n/a	FR1	0	R1069M
2446.948	1.6	1240774	ORIENT	n/a	n/a	n/a	-999	21	[0, 0, 0]	n/a	FR1	0	R1069M
2449.565	1.6	1242082	WORD	n/a	wordpools/wordpool_EN.txt	LAND	1	21	[0, 0, 0]	n/a	FR1	0	R1069M
2451.982	1.6	1243290	WORD	n/a	wordpools/wordpool_EN.txt	LAKE	2	21	[0, 0, 0]	n/a	FR1	0	R1069M
2454.599	1.6	1244599	WORD	n/a	wordpools/wordpool_EN.txt	FARM	3	21	[0, 0, 0]	n/a	FR1	0	R1069M
2457.184	1.6	1245891	WORD	n/a	wordpools/wordpool_EN.txt	TOY	4	21	[0, 0, 0]	n/a	FR1	0	R1069M
2459.7	1.6	1247149	WORD	n/a	wordpools/wordpool_EN.txt	ZOO	5	21	[0, 0, 0]	n/a	FR1	0	R1069M
2462.185	1.6	1248391	WORD	n/a	wordpools/wordpool_EN.txt	TEA	6	21	[0, 0, 0]	n/a	FR1	0	R1069M
2464.684	1.6	1249641	WORD	n/a	wordpools/wordpool_EN.txt	HEART	7	21	[0, 0, 0]	n/a	FR1	0	R1069M
2467.186	1.6	1250892	WORD	n/a	wordpools/wordpool_EN.txt	CAT	8	21	[0, 0, 0]	n/a	FR1	0	R1069M
2469.569	1.6	1252083	WORD	n/a	wordpools/wordpool_EN.txt	BRIDGE	9	21	[0, 0, 0]	n/a	FR1	0	R1069M
2471.969	1.6	1253283	WORD	n/a	wordpools/wordpool_EN.txt	SHRIMP	10	21	[0, 0, 0]	n/a	FR1	0	R1069M
2474.436	1.6	1254516	WORD	n/a	wordpools/wordpool_EN.txt	FORT	11	21	[0, 0, 0]	n/a	FR1	0	R1069M
2476.92	1.6	1255758	WORD	n/a	wordpools/wordpool_EN.txt	GOLD	12	21	[0, 0, 0]	n/a	FR1	0	R1069M
2478.537	0.001	1256567	DISTRACT_START	n/a	n/a	n/a	-999	21	[0, 0, 0]	n/a	FR1	0	R1069M
2478.538	0.016	1256567	START	n/a	n/a	n/a	-999	21	[-999, -999, -999]	n/a	FR1	0	R1069M
2478.554	4.017	1256575	PROB	3.987	n/a	n/a	-999	21	[1, 7, 1]	9.0	FR1	0	R1069M
2482.571	5.735	1258584	PROB	5.698	n/a	n/a	-999	21	[6, 3, 4]	13.0	FR1	0	R1069M
2488.306	4.1	1261451	PROB	4.067	n/a	n/a	-999	21	[2, 4, 8]	14.0	FR1	0	R1069M
2492.406	5.118	1263501	PROB	5.087	n/a	n/a	-999	21	[9, 2, 5]	16.0	FR1	0	R1069M
2497.524	6.145	1266060	PROB	6.145	n/a	n/a	-999	21	[7, 9, 7]	23.0	FR1	0	R1069M
2503.669	0.006	1269132	STOP	n/a	n/a	n/a	-999	21	[-999, -999, -999]	n/a	FR1	0	R1069M
2503.675	1.084	1269135	DISTRACT_END	n/a	n/a	n/a	-999	21	[0, 0, 0]	n/a	FR1	0	R1069M
2504.759	1.639	1269677	REC_START	n/a	n/a	n/a	-999	21	[0, 0, 0]	n/a	FR1	0	R1069M
2506.398	1.805	1270496	REC_WORD	1.639	n/a	WIND	-999	21	[0, 0, 0]	n/a	FR1	0	R1069M
2508.203	2.059	1271399	REC_WORD	3.444	n/a	LAKE	2	21	[0, 0, 0]	n/a	FR1	0	R1069M
2510.262	2.033	1272428	REC_WORD	5.503	n/a	FARM	3	21	[0, 0, 0]	n/a	FR1	0	R1069M
2512.295	5.409	1273444	REC_WORD	7.536	n/a	TOY	4	21	[0, 0, 0]	n/a	FR1	0	R1069M
2517.704	17.069	1276149	REC_WORD	12.945	n/a	BRIDGE	9	21	[0, 0, 0]	n/a	FR1	0	R1069M
2534.773	6.494	1284683	REC_END	n/a	n/a	n/a	-999	21	[0, 0, 0]	n/a	FR1	0	R1069M
2541.267	0.0	1287929	TRIAL	n/a	n/a	n/a	-999	22	[0, 0, 0]	n/a	FR1	0	R1069M
2541.267	10.0	1287929	COUNTDOWN_START	n/a	n/a	n/a	-999	22	[0, 0, 0]	n/a	FR1	0	R1069M
2551.695	0.006	1293143	COUNTDOWN_END	n/a	n/a	n/a	-999	22	[0, 0, 0]	n/a	FR1	0	R1069M
2551.701	1.6	1293146	ORIENT	n/a	n/a	n/a	-999	22	[0, 0, 0]	n/a	FR1	0	R1069M
2554.285	1.6	1294438	WORD	n/a	wordpools/wordpool_EN.txt	HAWK	1	22	[0, 0, 0]	n/a	FR1	0	R1069M
2556.835	1.6	1295713	WORD	n/a	wordpools/wordpool_EN.txt	MAIL	2	22	[0, 0, 0]	n/a	FR1	0	R1069M
2559.336	1.6	1296963	WORD	n/a	wordpools/wordpool_EN.txt	BOOK	3	22	[0, 0, 0]	n/a	FR1	0	R1069M
2561.803	1.6	1298196	WORD	n/a	wordpools/wordpool_EN.txt	STORE	4	22	[0, 0, 0]	n/a	FR1	0	R1069M
2564.37	1.6	1299480	WORD	n/a	wordpools/wordpool_EN.txt	HORSE	5	22	[0, 0, 0]	n/a	FR1	0	R1069M
2566.771	1.6	1300680	WORD	n/a	wordpools/wordpool_EN.txt	CORD	6	22	[0, 0, 0]	n/a	FR1	0	R1069M
2569.189	1.6	1301889	WORD	n/a	wordpools/wordpool_EN.txt	BAT	7	22	[0, 0, 0]	n/a	FR1	0	R1069M
2571.705	1.6	1303147	WORD	n/a	wordpools/wordpool_EN.txt	PEA	8	22	[0, 0, 0]	n/a	FR1	0	R1069M
2574.289	1.6	1304439	WORD	n/a	wordpools/wordpool_EN.txt	JET	9	22	[0, 0, 0]	n/a	FR1	0	R1069M
2576.873	1.6	1305731	WORD	n/a	wordpools/wordpool_EN.txt	JAIL	10	22	[0, 0, 0]	n/a	FR1	0	R1069M
2579.357	1.6	1306973	WORD	n/a	wordpools/wordpool_EN.txt	TOOL	11	22	[0, 0, 0]	n/a	FR1	0	R1069M
2581.84	1.6	1308214	WORD	n/a	wordpools/wordpool_EN.txt	SHEET	12	22	[0, 0, 0]	n/a	FR1	0	R1069M
2583.457	0.001	1309023	DISTRACT_START	n/a	n/a	n/a	-999	22	[0, 0, 0]	n/a	FR1	0	R1069M
2583.458	0.016	1309023	START	n/a	n/a	n/a	-999	22	[-999, -999, -999]	n/a	FR1	0	R1069M
2583.474	5.218	1309031	PROB	5.195	n/a	n/a	-999	22	[8, 1, 7]	16.0	FR1	0	R1069M
2588.692	5.917	1311640	PROB	5.897	n/a	n/a	-999	22	[6, 7, 1]	14.0	FR1	0	R1069M
2594.609	3.401	1314598	PROB	3.38	n/a	n/a	-999	22	[5, 8, 8]	21.0	FR1	0	R1069M
2598.01	3.202	1316298	PROB	3.172	n/a	n/a	-999	22	[7, 4, 4]	15.0	FR1	0	R1069M
2601.212	3.034	1317899	PROB	3.034	n/a	n/a	-999	22	[3, 4, 7]	14.0	FR1	0	R1069M
2604.246	0.016	1319416	STOP	n/a	n/a	n/a	-999	22	[-999, -999, -999]	n/a	FR1	0	R1069M
2604.262	1.05	1319424	DISTRACT_END	n/a	n/a	n/a	-999	22	[0, 0, 0]	n/a	FR1	0	R1069M
2605.312	1.057	1319949	REC_START	n/a	n/a	n/a	-999	22	[0, 0, 0]	n/a	FR1	0	R1069M
2606.369	1.516	1320478	REC_WORD	1.057	n/a	HAWK	1	22	[0, 0, 0]	n/a	FR1	0	R1069M
2607.885	2.838	1321236	REC_WORD	2.573	n/a	MAIL	2	22	[0, 0, 0]	n/a	FR1	0	R1069M
2610.723	1.995	1322654	REC_WORD	5.411	n/a	PEA	8	22	[0, 0, 0]	n/a	FR1	0	R1069M
2612.718	22.608	1323652	REC_WORD	7.406	n/a	HORSE	5	22	[0, 0, 0]	n/a	FR1	0	R1069M
2635.326	7.726	1334955	REC_END	n/a	n/a	n/a	-999	22	[0, 0, 0]	n/a	FR1	0	R1069M
2643.052	10.0	1338818	COUNTDOWN_START	n/a	n/a	n/a	-999	23	[0, 0, 0]	n/a	FR1	0	R1069M
2643.052	10.428	1338818	TRIAL	n/a	n/a	n/a	-999	23	[0, 0, 0]	n/a	FR1	0	R1069M
2653.48	0.008	1344031	COUNTDOWN_END	n/a	n/a	n/a	-999	23	[0, 0, 0]	n/a	FR1	0	R1069M
2653.488	1.6	1344035	ORIENT	n/a	n/a	n/a	-999	23	[0, 0, 0]	n/a	FR1	0	R1069M
2655.921	1.6	1345252	WORD	n/a	wordpools/wordpool_EN.txt	HOLE	1	23	[0, 0, 0]	n/a	FR1	0	R1069M
2658.388	1.6	1346485	WORD	n/a	wordpools/wordpool_EN.txt	BED	2	23	[0, 0, 0]	n/a	FR1	0	R1069M
2660.939	1.6	1347760	WORD	n/a	wordpools/wordpool_EN.txt	TRAIN	3	23	[0, 0, 0]	n/a	FR1	0	R1069M
2663.423	1.6	1349002	WORD	n/a	wordpools/wordpool_EN.txt	CART	4	23	[0, 0, 0]	n/a	FR1	0	R1069M
2665.94	1.6	1350261	WORD	n/a	wordpools/wordpool_EN.txt	MAT	5	23	[0, 0, 0]	n/a	FR1	0	R1069M
2668.44	1.6	1351511	WORD	n/a	wordpools/wordpool_EN.txt	MAZE	6	23	[0, 0, 0]	n/a	FR1	0	R1069M
2670.891	1.6	1352736	WORD	n/a	wordpools/wordpool_EN.txt	HAT	7	23	[0, 0, 0]	n/a	FR1	0	R1069M
2673.408	1.6	1353994	WORD	n/a	wordpools/wordpool_EN.txt	PARK	8	23	[0, 0, 0]	n/a	FR1	0	R1069M
2676.009	1.6	1355295	WORD	n/a	wordpools/wordpool_EN.txt	TRUCK	9	23	[0, 0, 0]	n/a	FR1	0	R1069M
2678.526	1.6	1356553	WORD	n/a	wordpools/wordpool_EN.txt	SQUARE	10	23	[0, 0, 0]	n/a	FR1	0	R1069M
2681.076	1.6	1357828	WORD	n/a	wordpools/wordpool_EN.txt	PRINCE	11	23	[0, 0, 0]	n/a	FR1	0	R1069M
2683.56	1.6	1359070	WORD	n/a	wordpools/wordpool_EN.txt	HOOF	12	23	[0, 0, 0]	n/a	FR1	0	R1069M
2685.178	0.001	1359879	DISTRACT_START	n/a	n/a	n/a	-999	23	[0, 0, 0]	n/a	FR1	0	R1069M
2685.179	0.016	1359879	START	n/a	n/a	n/a	-999	23	[-999, -999, -999]	n/a	FR1	0	R1069M
2685.195	3.849	1359887	PROB	3.826	n/a	n/a	-999	23	[5, 4, 2]	11.0	FR1	0	R1069M
2689.044	3.334	1361812	PROB	3.313	n/a	n/a	-999	23	[8, 3, 1]	12.0	FR1	0	R1069M
2692.378	2.618	1363479	PROB	2.595	n/a	n/a	-999	23	[2, 2, 7]	11.0	FR1	0	R1069M
2694.996	3.067	1364788	PROB	3.033	n/a	n/a	-999	23	[1, 2, 4]	7.0	FR1	0	R1069M
2698.063	4.934	1366321	PROB	4.91	n/a	n/a	-999	23	[3, 9, 3]	15.0	FR1	0	R1069M
2702.997	2.88	1368788	PROB	2.88	n/a	n/a	-999	23	[2, 9, 2]	13.0	FR1	0	R1069M
2705.877	0.004	1370228	STOP	n/a	n/a	n/a	-999	23	[-999, -999, -999]	n/a	FR1	0	R1069M
2705.881	1.068	1370230	DISTRACT_END	n/a	n/a	n/a	-999	23	[0, 0, 0]	n/a	FR1	0	R1069M
2706.949	1.286	1370764	REC_START	n/a	n/a	n/a	-999	23	[0, 0, 0]	n/a	FR1	0	R1069M
2708.235	1.605	1371407	REC_WORD	1.286	n/a	HOLE	1	23	[0, 0, 0]	n/a	FR1	0	R1069M
2709.84	1.697	1372209	REC_WORD	2.891	n/a	BED	2	23	[0, 0, 0]	n/a	FR1	0	R1069M
2711.537	25.422	1373057	REC_WORD	4.588	n/a	TRAIN	3	23	[0, 0, 0]	n/a	FR1	0	R1069M
2736.959	11.697	1385767	REC_END	n/a	n/a	n/a	-999	23	[0, 0, 0]	n/a	FR1	0	R1069M
2748.656	0.0	1391615	TRIAL	n/a	n/a	n/a	-999	24	[0, 0, 0]	n/a	FR1	0	R1069M
2748.656	10.0	1391615	COUNTDOWN_START	n/a	n/a	n/a	-999	24	[0, 0, 0]	n/a	FR1	0	R1069M
2759.084	0.007	1396829	COUNTDOWN_END	n/a	n/a	n/a	-999	24	[0, 0, 0]	n/a	FR1	0	R1069M
2759.091	1.6	1396832	ORIENT	n/a	n/a	n/a	-999	24	[0, 0, 0]	n/a	FR1	0	R1069M
2761.725	1.6	1398149	WORD	n/a	wordpools/wordpool_EN.txt	FLAME	1	24	[0, 0, 0]	n/a	FR1	0	R1069M
2764.193	1.6	1399383	WORD	n/a	wordpools/wordpool_EN.txt	SKI	2	24	[0, 0, 0]	n/a	FR1	0	R1069M
2766.659	1.6	1400616	WORD	n/a	wordpools/wordpool_EN.txt	PIN	3	24	[0, 0, 0]	n/a	FR1	0	R1069M
2769.11	1.6	1401842	WORD	n/a	wordpools/wordpool_EN.txt	APE	4	24	[0, 0, 0]	n/a	FR1	0	R1069M
2771.644	1.6	1403108	WORD	n/a	wordpools/wordpool_EN.txt	WAVE	5	24	[0, 0, 0]	n/a	FR1	0	R1069M
2774.262	1.6	1404417	WORD	n/a	wordpools/wordpool_EN.txt	BROOM	6	24	[0, 0, 0]	n/a	FR1	0	R1069M
2776.845	1.6	1405709	WORD	n/a	wordpools/wordpool_EN.txt	FUR	7	24	[0, 0, 0]	n/a	FR1	0	R1069M
2779.246	1.6	1406909	WORD	n/a	wordpools/wordpool_EN.txt	SNOW	8	24	[0, 0, 0]	n/a	FR1	0	R1069M
2781.829	1.6	1408201	WORD	n/a	wordpools/wordpool_EN.txt	FOG	9	24	[0, 0, 0]	n/a	FR1	0	R1069M
2784.313	1.6	1409442	WORD	n/a	wordpools/wordpool_EN.txt	BEACH	10	24	[0, 0, 0]	n/a	FR1	0	R1069M
2786.863	1.6	1410717	WORD	n/a	wordpools/wordpool_EN.txt	DRUM	11	24	[0, 0, 0]	n/a	FR1	0	R1069M
2789.364	1.6	1411968	WORD	n/a	wordpools/wordpool_EN.txt	LIP	12	24	[0, 0, 0]	n/a	FR1	0	R1069M
2790.981	0.0	1412776	DISTRACT_START	n/a	n/a	n/a	-999	24	[0, 0, 0]	n/a	FR1	0	R1069M
2790.981	0.016	1412776	START	n/a	n/a	n/a	-999	24	[-999, -999, -999]	n/a	FR1	0	R1069M
2790.997	4.935	1412784	PROB	4.912	n/a	n/a	-999	24	[4, 5, 6]	15.0	FR1	0	R1069M
2795.932	3.984	1415251	PROB	3.961	n/a	n/a	-999	24	[4, 7, 9]	20.0	FR1	0	R1069M
2799.916	3.951	1417243	PROB	3.929	n/a	n/a	-999	24	[3, 8, 8]	19.0	FR1	0	R1069M
2803.867	3.167	1419219	PROB	3.138	n/a	n/a	-999	24	[6, 6, 6]	18.0	FR1	0	R1069M
2807.034	3.117	1420802	PROB	3.091	n/a	n/a	-999	24	[1, 6, 8]	15.0	FR1	0	R1069M
2810.151	3.774	1422360	PROB	3.774	n/a	n/a	-999	24	[6, 2, 3]	11.0	FR1	0	R1069M
2813.925	0.01	1424247	STOP	n/a	n/a	n/a	-999	24	[-999, -999, -999]	n/a	FR1	0	R1069M
2813.935	1.218	1424252	DISTRACT_END	n/a	n/a	n/a	-999	24	[0, 0, 0]	n/a	FR1	0	R1069M
2815.153	1.272	1424861	REC_START	n/a	n/a	n/a	-999	24	[0, 0, 0]	n/a	FR1	0	R1069M
2816.425	1.679	1425497	REC_WORD	1.272	n/a	FLAME	1	24	[0, 0, 0]	n/a	FR1	0	R1069M
2818.104	2.013	1426337	REC_WORD	2.951	n/a	SKI	2	24	[0, 0, 0]	n/a	FR1	0	R1069M
2820.117	5.012	1427343	REC_WORD	4.964	n/a	LIP	12	24	[0, 0, 0]	n/a	FR1	0	R1069M
2825.129	20.035	1429849	REC_WORD	9.976	n/a	FUR	7	24	[0, 0, 0]	n/a	FR1	0	R1069M
2845.164	21.281	1439865	REC_END	n/a	n/a	n/a	-999	24	[0, 0, 0]	n/a	FR1	0	R1069M
2866.445	10.0	1450505	COUNTDOWN_START	n/a	n/a	n/a	-999	25	[0, 0, 0]	n/a	FR1	0	R1069M
2866.446	10.427	1450506	TRIAL	n/a	n/a	n/a	-999	25	[0, 0, 0]	n/a	FR1	0	R1069M
2876.873	0.008	1455719	COUNTDOWN_END	n/a	n/a	n/a	-999	25	[0, 0, 0]	n/a	FR1	0	R1069M
2876.881	1.6	1455723	ORIENT	n/a	n/a	n/a	-999	25	[0, 0, 0]	n/a	FR1	0	R1069M
2879.281	1.6	1456923	WORD	n/a	wordpools/wordpool_EN.txt	FOX	1	25	[0, 0, 0]	n/a	FR1	0	R1069M
2881.815	1.6	1458189	WORD	n/a	wordpools/wordpool_EN.txt	BAG	2	25	[0, 0, 0]	n/a	FR1	0	R1069M
2884.365	1.6	1459464	WORD	n/a	wordpools/wordpool_EN.txt	COW	3	25	[0, 0, 0]	n/a	FR1	0	R1069M
2886.816	1.6	1460690	WORD	n/a	wordpools/wordpool_EN.txt	CRANE	4	25	[0, 0, 0]	n/a	FR1	0	R1069M
2889.367	1.6	1461965	WORD	n/a	wordpools/wordpool_EN.txt	DOCK	5	25	[0, 0, 0]	n/a	FR1	0	R1069M
2891.9	1.6	1463232	WORD	n/a	wordpools/wordpool_EN.txt	AXE	6	25	[0, 0, 0]	n/a	FR1	0	R1069M
2894.317	1.6	1464440	WORD	n/a	wordpools/wordpool_EN.txt	EAR	7	25	[0, 0, 0]	n/a	FR1	0	R1069M
2896.934	1.6	1465748	WORD	n/a	wordpools/wordpool_EN.txt	GRASS	8	25	[0, 0, 0]	n/a	FR1	0	R1069M
2899.452	1.6	1467007	WORD	n/a	wordpools/wordpool_EN.txt	CROW	9	25	[0, 0, 0]	n/a	FR1	0	R1069M
2901.952	1.6	1468257	WORD	n/a	wordpools/wordpool_EN.txt	TOAD	10	25	[0, 0, 0]	n/a	FR1	0	R1069M
2904.436	1.6	1469499	WORD	n/a	wordpools/wordpool_EN.txt	WORLD	11	25	[0, 0, 0]	n/a	FR1	0	R1069M
2906.853	1.6	1470707	WORD	n/a	wordpools/wordpool_EN.txt	SHEEP	12	25	[0, 0, 0]	n/a	FR1	0	R1069M
2908.47	0.001	1471516	DISTRACT_START	n/a	n/a	n/a	-999	25	[0, 0, 0]	n/a	FR1	0	R1069M
2908.471	0.016	1471516	START	n/a	n/a	n/a	-999	25	[-999, -999, -999]	n/a	FR1	0	R1069M
2908.487	4.117	1471524	PROB	4.094	n/a	n/a	-999	25	[3, 3, 7]	13.0	FR1	0	R1069M
2912.604	7.552	1473583	PROB	7.529	n/a	n/a	-999	25	[4, 3, 9]	16.0	FR1	0	R1069M
2920.156	2.167	1477358	PROB	2.137	n/a	n/a	-999	25	[9, 1, 1]	11.0	FR1	0	R1069M
2922.323	2.75	1478442	PROB	2.73	n/a	n/a	-999	25	[4, 8, 2]	14.0	FR1	0	R1069M
2925.073	4.724	1479817	PROB	4.724	n/a	n/a	-999	25	[8, 3, 2]	13.0	FR1	0	R1069M
2929.797	0.011	1482179	STOP	n/a	n/a	n/a	-999	25	[-999, -999, -999]	n/a	FR1	0	R1069M
2929.808	1.067	1482184	DISTRACT_END	n/a	n/a	n/a	-999	25	[0, 0, 0]	n/a	FR1	0	R1069M
2930.875	0.991	1482718	REC_START	n/a	n/a	n/a	-999	25	[0, 0, 0]	n/a	FR1	0	R1069M
2931.866	3.391	1483213	REC_WORD	0.991	n/a	FOX	1	25	[0, 0, 0]	n/a	FR1	0	R1069M
2935.257	16.817	1484908	REC_WORD	4.382	n/a	CRANE	4	25	[0, 0, 0]	n/a	FR1	0	R1069M
2952.074	8.811	1493316	REC_WORD	21.199	n/a	BAG	2	25	[0, 0, 0]	n/a	FR1	0	R1069M
2960.885	94.247	1497721	REC_END	n/a	n/a	n/a	-999	25	[0, 0, 0]	n/a	FR1	0	R1069M
3055.132	0.0	1544841	SESS_END	n/a	n/a	n/a	-999	25	[0, 0, 0]	n/a	FR1	0	R1069M
