onset	duration	sample	trial_type	response_time	stim_file	item_name	serialpos	list	test	answer	experiment	session	subject
0.0	13.669	375713	SESS_START	n/a	n/a	n/a	-999	-999	[0, 0, 0]	n/a	FR1	0	R1044J
13.669	10.0	389381	COUNTDOWN_START	n/a	n/a	n/a	-999	-999	[0, 0, 0]	n/a	FR1	0	R1044J
24.097	3.896	399809	COUNTDOWN_END	n/a	n/a	n/a	-999	-999	[0, 0, 0]	n/a	FR1	0	R1044J
27.993	1.6	403705	PRACTICE_WORD	n/a	n/a	CAMEL	1	-1	[0, 0, 0]	n/a	FR1	0	R1044J
30.38	1.6	406092	PRACTICE_WORD	n/a	n/a	COTTON	2	-1	[0, 0, 0]	n/a	FR1	0	R1044J
32.768	1.6	408480	PRACTICE_WORD	n/a	n/a	IRON	3	-1	[0, 0, 0]	n/a	FR1	0	R1044J
35.222	1.6	410934	PRACTICE_WORD	n/a	n/a	RING	4	-1	[0, 0, 0]	n/a	FR1	0	R1044J
37.66	1.6	413371	PRACTICE_WORD	n/a	n/a	BEAM	5	-1	[0, 0, 0]	n/a	FR1	0	R1044J
40.097	1.6	415808	PRACTICE_WORD	n/a	n/a	WATCH	6	-1	[0, 0, 0]	n/a	FR1	0	R1044J
42.718	1.6	418429	PRACTICE_WORD	n/a	n/a	TONGUE	7	-1	[0, 0, 0]	n/a	FR1	0	R1044J
45.139	1.6	420850	PRACTICE_WORD	n/a	n/a	FLOOD	8	-1	[0, 0, 0]	n/a	FR1	0	R1044J
47.576	1.6	423287	PRACTICE_WORD	n/a	n/a	RHINO	9	-1	[0, 0, 0]	n/a	FR1	0	R1044J
50.031	1.6	425742	PRACTICE_WORD	n/a	n/a	CHEST	10	-1	[0, 0, 0]	n/a	FR1	0	R1044J
52.551	1.6	428262	PRACTICE_WORD	n/a	n/a	ATTIC	11	-1	[0, 0, 0]	n/a	FR1	0	R1044J
55.156	1.6	430867	PRACTICE_WORD	n/a	n/a	WAGON	12	-1	[0, 0, 0]	n/a	FR1	0	R1044J
56.775	0.001	432486	PRACTICE_DISTRACT_START	n/a	n/a	n/a	-999	-1	[0, 0, 0]	n/a	FR1	0	R1044J
56.776	0.032	432487	START	n/a	n/a	n/a	-999	-1	[-999, -999, -999]	n/a	FR1	0	R1044J
56.808	13.924	432519	PROB	13.897	n/a	n/a	-999	-1	[1, 4, 7]	12.0	FR1	0	R1044J
70.732	9.149	446442	PROB	9.149	n/a	n/a	-999	-1	[8, 1, 6]	15.0	FR1	0	R1044J
79.881	0.016	455591	STOP	n/a	n/a	n/a	-999	-1	[-999, -999, -999]	n/a	FR1	0	R1044J
79.897	0.569	455607	PRACTICE_DISTRACT_END	n/a	n/a	n/a	-999	-1	[0, 0, 0]	n/a	FR1	0	R1044J
80.466	30.517	456176	PRACTICE_REC_START	n/a	n/a	n/a	-999	-1	[0, 0, 0]	n/a	FR1	0	R1044J
110.983	26.477	486692	PRACTICE_REC_END	n/a	n/a	n/a	-999	-1	[0, 0, 0]	n/a	FR1	0	R1044J
137.46	0.0	513168	TRIAL	n/a	n/a	n/a	-999	1	[0, 0, 0]	n/a	FR1	0	R1044J
137.46	10.0	513168	COUNTDOWN_START	n/a	n/a	n/a	-999	1	[0, 0, 0]	n/a	FR1	0	R1044J
147.888	0.007	523595	COUNTDOWN_END	n/a	n/a	n/a	-999	1	[0, 0, 0]	n/a	FR1	0	R1044J
147.895	1.6	523602	ORIENT	n/a	n/a	n/a	-999	1	[0, 0, 0]	n/a	FR1	0	R1044J
150.365	1.6	526072	WORD	n/a	wordpools/wordpool_EN.txt	OAK	1	1	[0, 0, 0]	n/a	FR1	0	R1044J
152.753	1.6	528460	WORD	n/a	wordpools/wordpool_EN.txt	CUP	2	1	[0, 0, 0]	n/a	FR1	0	R1044J
155.158	1.6	530865	WORD	n/a	wordpools/wordpool_EN.txt	MUG	3	1	[0, 0, 0]	n/a	FR1	0	R1044J
157.763	1.6	533470	WORD	n/a	wordpools/wordpool_EN.txt	SHELL	4	1	[0, 0, 0]	n/a	FR1	0	R1044J
160.166	1.6	535873	WORD	n/a	wordpools/wordpool_EN.txt	PASTE	5	1	[0, 0, 0]	n/a	FR1	0	R1044J
162.553	1.6	538260	WORD	n/a	wordpools/wordpool_EN.txt	EGG	6	1	[0, 0, 0]	n/a	FR1	0	R1044J
165.141	1.6	540848	WORD	n/a	wordpools/wordpool_EN.txt	WAND	7	1	[0, 0, 0]	n/a	FR1	0	R1044J
167.596	1.6	543303	WORD	n/a	wordpools/wordpool_EN.txt	SPOON	8	1	[0, 0, 0]	n/a	FR1	0	R1044J
170.133	1.6	545840	WORD	n/a	wordpools/wordpool_EN.txt	HEN	9	1	[0, 0, 0]	n/a	FR1	0	R1044J
172.703	1.6	548410	WORD	n/a	wordpools/wordpool_EN.txt	LAMB	10	1	[0, 0, 0]	n/a	FR1	0	R1044J
175.091	1.6	550797	WORD	n/a	wordpools/wordpool_EN.txt	WOOD	11	1	[0, 0, 0]	n/a	FR1	0	R1044J
177.527	1.6	553233	WORD	n/a	wordpools/wordpool_EN.txt	PEACH	12	1	[0, 0, 0]	n/a	FR1	0	R1044J
179.131	0.001	554837	DISTRACT_START	n/a	n/a	n/a	-999	1	[0, 0, 0]	n/a	FR1	0	R1044J
179.132	0.016	554838	START	n/a	n/a	n/a	-999	1	[-999, -999, -999]	n/a	FR1	0	R1044J
179.148	11.018	554854	PROB	10.993	n/a	n/a	-999	1	[6, 2, 7]	15.0	FR1	0	R1044J
190.166	38.926	565872	PROB	38.926	n/a	n/a	-999	1	[8, 3, 4]	15.0	FR1	0	R1044J
229.092	0.006	604797	STOP	n/a	n/a	n/a	-999	1	[-999, -999, -999]	n/a	FR1	0	R1044J
229.098	1.893	604803	DISTRACT_END	n/a	n/a	n/a	-999	1	[0, 0, 0]	n/a	FR1	0	R1044J
230.991	10.702	606695	REC_START	n/a	n/a	n/a	-999	1	[0, 0, 0]	n/a	FR1	0	R1044J
241.693	1.161	617397	REC_WORD_VV	10.702	n/a	<>	-999	1	[0, 0, 0]	n/a	FR1	0	R1044J
242.854	2.303	618558	REC_WORD_VV	11.863	n/a	<>	-999	1	[0, 0, 0]	n/a	FR1	0	R1044J
245.157	7.842	620861	REC_WORD_VV	14.166	n/a	<>	-999	1	[0, 0, 0]	n/a	FR1	0	R1044J
252.999	0.789	628703	REC_WORD_VV	22.008	n/a	<>	-999	1	[0, 0, 0]	n/a	FR1	0	R1044J
253.788	0.952	629492	REC_WORD_VV	22.797	n/a	<>	-999	1	[0, 0, 0]	n/a	FR1	0	R1044J
254.74	1.138	630444	REC_WORD_VV	23.749	n/a	<>	-999	1	[0, 0, 0]	n/a	FR1	0	R1044J
255.878	1.811	631582	REC_WORD_VV	24.887	n/a	<>	-999	1	[0, 0, 0]	n/a	FR1	0	R1044J
257.689	1.045	633393	REC_WORD_VV	26.698	n/a	<>	-999	1	[0, 0, 0]	n/a	FR1	0	R1044J
258.734	1.441	634437	REC_WORD_VV	27.743	n/a	<>	-999	1	[0, 0, 0]	n/a	FR1	0	R1044J
260.175	5.535	635878	REC_END	n/a	n/a	n/a	-999	1	[0, 0, 0]	n/a	FR1	0	R1044J
265.71	0.0	641413	TRIAL	n/a	n/a	n/a	-999	2	[0, 0, 0]	n/a	FR1	0	R1044J
265.71	10.0	641413	COUNTDOWN_START	n/a	n/a	n/a	-999	2	[0, 0, 0]	n/a	FR1	0	R1044J
276.138	0.006	651841	COUNTDOWN_END	n/a	n/a	n/a	-999	2	[0, 0, 0]	n/a	FR1	0	R1044J
276.144	1.6	651847	ORIENT	n/a	n/a	n/a	-999	2	[0, 0, 0]	n/a	FR1	0	R1044J
278.582	1.6	654285	WORD	n/a	wordpools/wordpool_EN.txt	FLAME	1	2	[0, 0, 0]	n/a	FR1	0	R1044J
281.02	1.6	656723	WORD	n/a	wordpools/wordpool_EN.txt	SKI	2	2	[0, 0, 0]	n/a	FR1	0	R1044J
283.64	1.6	659343	WORD	n/a	wordpools/wordpool_EN.txt	PIN	3	2	[0, 0, 0]	n/a	FR1	0	R1044J
286.111	1.6	661814	WORD	n/a	wordpools/wordpool_EN.txt	APE	4	2	[0, 0, 0]	n/a	FR1	0	R1044J
288.715	1.6	664417	WORD	n/a	wordpools/wordpool_EN.txt	WAVE	5	2	[0, 0, 0]	n/a	FR1	0	R1044J
291.22	1.6	666922	WORD	n/a	wordpools/wordpool_EN.txt	BROOM	6	2	[0, 0, 0]	n/a	FR1	0	R1044J
293.857	1.6	669559	WORD	n/a	wordpools/wordpool_EN.txt	FUR	7	2	[0, 0, 0]	n/a	FR1	0	R1044J
296.477	1.6	672179	WORD	n/a	wordpools/wordpool_EN.txt	SNOW	8	2	[0, 0, 0]	n/a	FR1	0	R1044J
298.883	1.6	674585	WORD	n/a	wordpools/wordpool_EN.txt	FOG	9	2	[0, 0, 0]	n/a	FR1	0	R1044J
301.469	1.6	677171	WORD	n/a	wordpools/wordpool_EN.txt	BEACH	10	2	[0, 0, 0]	n/a	FR1	0	R1044J
303.974	1.6	679676	WORD	n/a	wordpools/wordpool_EN.txt	DRUM	11	2	[0, 0, 0]	n/a	FR1	0	R1044J
306.562	1.6	682264	WORD	n/a	wordpools/wordpool_EN.txt	LIP	12	2	[0, 0, 0]	n/a	FR1	0	R1044J
308.182	0.0	683884	DISTRACT_START	n/a	n/a	n/a	-999	2	[0, 0, 0]	n/a	FR1	0	R1044J
308.182	0.016	683884	START	n/a	n/a	n/a	-999	2	[-999, -999, -999]	n/a	FR1	0	R1044J
308.198	6.394	683900	PROB	6.361	n/a	n/a	-999	2	[1, 6, 5]	12.0	FR1	0	R1044J
314.592	33.819	690293	PROB	33.819	n/a	n/a	-999	2	[1, 3, 5]	9.0	FR1	0	R1044J
348.411	0.021	724111	STOP	n/a	n/a	n/a	-999	2	[-999, -999, -999]	n/a	FR1	0	R1044J
348.432	1.186	724132	DISTRACT_END	n/a	n/a	n/a	-999	2	[0, 0, 0]	n/a	FR1	0	R1044J
349.618	11.236	725318	REC_START	n/a	n/a	n/a	-999	2	[0, 0, 0]	n/a	FR1	0	R1044J
360.854	0.455	736554	REC_WORD_VV	11.236	n/a	<>	-999	2	[0, 0, 0]	n/a	FR1	0	R1044J
361.309	0.616	737009	REC_WORD	11.691	n/a	FLAME	-999	2	[0, 0, 0]	n/a	FR1	0	R1044J
361.925	1.516	737625	REC_WORD	12.307	n/a	KEY	-999	2	[0, 0, 0]	n/a	FR1	0	R1044J
363.441	1.912	739141	REC_WORD_VV	13.823	n/a	<>	-999	2	[0, 0, 0]	n/a	FR1	0	R1044J
365.353	2.503	741053	REC_WORD	15.735	n/a	SKIN	-999	2	[0, 0, 0]	n/a	FR1	0	R1044J
367.856	0.801	743556	REC_WORD_VV	18.238	n/a	<>	-999	2	[0, 0, 0]	n/a	FR1	0	R1044J
368.657	0.975	744357	REC_WORD_VV	19.039	n/a	<>	-999	2	[0, 0, 0]	n/a	FR1	0	R1044J
369.632	4.108	745332	REC_WORD_VV	20.014	n/a	<>	-999	2	[0, 0, 0]	n/a	FR1	0	R1044J
373.74	1.853	749439	REC_WORD_VV	24.122	n/a	<>	-999	2	[0, 0, 0]	n/a	FR1	0	R1044J
375.593	1.486	751292	REC_WORD_VV	25.975	n/a	<>	-999	2	[0, 0, 0]	n/a	FR1	0	R1044J
377.079	2.56	752778	REC_WORD_VV	27.461	n/a	<>	-999	2	[0, 0, 0]	n/a	FR1	0	R1044J
379.639	14.787	755338	REC_END	n/a	n/a	n/a	-999	2	[0, 0, 0]	n/a	FR1	0	R1044J
394.426	0.0	770125	TRIAL	n/a	n/a	n/a	-999	3	[0, 0, 0]	n/a	FR1	0	R1044J
394.426	10.0	770125	COUNTDOWN_START	n/a	n/a	n/a	-999	3	[0, 0, 0]	n/a	FR1	0	R1044J
404.854	0.007	780552	COUNTDOWN_END	n/a	n/a	n/a	-999	3	[0, 0, 0]	n/a	FR1	0	R1044J
404.861	1.6	780559	ORIENT	n/a	n/a	n/a	-999	3	[0, 0, 0]	n/a	FR1	0	R1044J
407.481	1.6	783179	WORD	n/a	wordpools/wordpool_EN.txt	STORM	1	3	[0, 0, 0]	n/a	FR1	0	R1044J
410.053	1.6	785751	WORD	n/a	wordpools/wordpool_EN.txt	FOAM	2	3	[0, 0, 0]	n/a	FR1	0	R1044J
412.657	1.6	788355	WORD	n/a	wordpools/wordpool_EN.txt	STRAW	3	3	[0, 0, 0]	n/a	FR1	0	R1044J
415.212	1.6	790910	WORD	n/a	wordpools/wordpool_EN.txt	TRASH	4	3	[0, 0, 0]	n/a	FR1	0	R1044J
417.699	1.6	793397	WORD	n/a	wordpools/wordpool_EN.txt	CLIFF	5	3	[0, 0, 0]	n/a	FR1	0	R1044J
420.153	1.6	795851	WORD	n/a	wordpools/wordpool_EN.txt	STAIR	6	3	[0, 0, 0]	n/a	FR1	0	R1044J
422.624	1.6	798322	WORD	n/a	wordpools/wordpool_EN.txt	GLASS	7	3	[0, 0, 0]	n/a	FR1	0	R1044J
425.112	1.6	800810	WORD	n/a	wordpools/wordpool_EN.txt	WHALE	8	3	[0, 0, 0]	n/a	FR1	0	R1044J
427.515	1.6	803212	WORD	n/a	wordpools/wordpool_EN.txt	BRICK	9	3	[0, 0, 0]	n/a	FR1	0	R1044J
430.07	1.6	805767	WORD	n/a	wordpools/wordpool_EN.txt	SMOKE	10	3	[0, 0, 0]	n/a	FR1	0	R1044J
432.523	1.6	808220	WORD	n/a	wordpools/wordpool_EN.txt	ROPE	11	3	[0, 0, 0]	n/a	FR1	0	R1044J
434.911	1.6	810608	WORD	n/a	wordpools/wordpool_EN.txt	ROCK	12	3	[0, 0, 0]	n/a	FR1	0	R1044J
436.53	0.001	812227	DISTRACT_START	n/a	n/a	n/a	-999	3	[0, 0, 0]	n/a	FR1	0	R1044J
436.531	0.016	812228	START	n/a	n/a	n/a	-999	3	[-999, -999, -999]	n/a	FR1	0	R1044J
436.547	11.27	812244	PROB	11.234	n/a	n/a	-999	3	[5, 3, 7]	15.0	FR1	0	R1044J
447.817	13.71	823514	PROB	13.71	n/a	n/a	-999	3	[5, 5, 7]	17.0	FR1	0	R1044J
461.527	0.011	837223	STOP	n/a	n/a	n/a	-999	3	[-999, -999, -999]	n/a	FR1	0	R1044J
461.538	1.138	837234	DISTRACT_END	n/a	n/a	n/a	-999	3	[0, 0, 0]	n/a	FR1	0	R1044J
462.676	8.545	838372	REC_START	n/a	n/a	n/a	-999	3	[0, 0, 0]	n/a	FR1	0	R1044J
471.221	0.492	846917	REC_WORD	8.545	n/a	STORM	-999	3	[0, 0, 0]	n/a	FR1	0	R1044J
471.713	0.486	847409	REC_WORD	9.037	n/a	FLAW	-999	3	[0, 0, 0]	n/a	FR1	0	R1044J
472.199	0.678	847895	REC_WORD	9.523	n/a	CLISH	-999	3	[0, 0, 0]	n/a	FR1	0	R1044J
472.877	0.511	848573	REC_WORD	10.201	n/a	CLIFF	-999	3	[0, 0, 0]	n/a	FR1	0	R1044J
473.388	3.964	849084	REC_WORD	10.712	n/a	TRASH	-999	3	[0, 0, 0]	n/a	FR1	0	R1044J
477.352	5.088	853048	REC_WORD_VV	14.676	n/a	<>	-999	3	[0, 0, 0]	n/a	FR1	0	R1044J
482.44	10.249	858135	REC_WORD_VV	19.764	n/a	<>	-999	3	[0, 0, 0]	n/a	FR1	0	R1044J
492.689	15.629	868384	REC_END	n/a	n/a	n/a	-999	3	[0, 0, 0]	n/a	FR1	0	R1044J
508.318	10.0	884013	COUNTDOWN_START	n/a	n/a	n/a	-999	4	[0, 0, 0]	n/a	FR1	0	R1044J
508.319	10.427	884014	TRIAL	n/a	n/a	n/a	-999	4	[0, 0, 0]	n/a	FR1	0	R1044J
518.746	0.006	894440	COUNTDOWN_END	n/a	n/a	n/a	-999	4	[0, 0, 0]	n/a	FR1	0	R1044J
518.752	1.6	894446	ORIENT	n/a	n/a	n/a	-999	4	[0, 0, 0]	n/a	FR1	0	R1044J
521.156	1.6	896850	WORD	n/a	wordpools/wordpool_EN.txt	TENT	1	4	[0, 0, 0]	n/a	FR1	0	R1044J
523.611	1.6	899305	WORD	n/a	wordpools/wordpool_EN.txt	STOOL	2	4	[0, 0, 0]	n/a	FR1	0	R1044J
526.165	1.6	901859	WORD	n/a	wordpools/wordpool_EN.txt	HORN	3	4	[0, 0, 0]	n/a	FR1	0	R1044J
528.602	1.6	904296	WORD	n/a	wordpools/wordpool_EN.txt	SHIRT	4	4	[0, 0, 0]	n/a	FR1	0	R1044J
530.99	1.6	906684	WORD	n/a	wordpools/wordpool_EN.txt	YARD	5	4	[0, 0, 0]	n/a	FR1	0	R1044J
533.46	1.6	909154	WORD	n/a	wordpools/wordpool_EN.txt	BOWL	6	4	[0, 0, 0]	n/a	FR1	0	R1044J
535.848	1.6	911542	WORD	n/a	wordpools/wordpool_EN.txt	SEAT	7	4	[0, 0, 0]	n/a	FR1	0	R1044J
538.468	1.6	914161	WORD	n/a	wordpools/wordpool_EN.txt	SLUSH	8	4	[0, 0, 0]	n/a	FR1	0	R1044J
541.023	1.6	916716	WORD	n/a	wordpools/wordpool_EN.txt	CHALK	9	4	[0, 0, 0]	n/a	FR1	0	R1044J
543.561	1.6	919254	WORD	n/a	wordpools/wordpool_EN.txt	PLATE	10	4	[0, 0, 0]	n/a	FR1	0	R1044J
546.048	1.6	921741	WORD	n/a	wordpools/wordpool_EN.txt	PANTS	11	4	[0, 0, 0]	n/a	FR1	0	R1044J
548.653	1.6	924346	WORD	n/a	wordpools/wordpool_EN.txt	BAND	12	4	[0, 0, 0]	n/a	FR1	0	R1044J
550.272	0.001	925965	DISTRACT_START	n/a	n/a	n/a	-999	4	[0, 0, 0]	n/a	FR1	0	R1044J
550.273	0.016	925966	START	n/a	n/a	n/a	-999	4	[-999, -999, -999]	n/a	FR1	0	R1044J
550.289	5.91	925982	PROB	5.883	n/a	n/a	-999	4	[2, 5, 7]	14.0	FR1	0	R1044J
556.199	4.124	931892	PROB	4.093	n/a	n/a	-999	4	[1, 1, 9]	11.0	FR1	0	R1044J
560.323	10.067	936016	PROB	10.067	n/a	n/a	-999	4	[3, 6, 5]	14.0	FR1	0	R1044J
570.39	0.015	946082	STOP	n/a	n/a	n/a	-999	4	[-999, -999, -999]	n/a	FR1	0	R1044J
570.405	1.237	946097	DISTRACT_END	n/a	n/a	n/a	-999	4	[0, 0, 0]	n/a	FR1	0	R1044J
571.642	4.275	947334	REC_START	n/a	n/a	n/a	-999	4	[0, 0, 0]	n/a	FR1	0	R1044J
575.917	0.459	951609	REC_WORD	4.275	n/a	TENT	-999	4	[0, 0, 0]	n/a	FR1	0	R1044J
576.376	0.602	952068	REC_WORD	4.734	n/a	STOOL	-999	4	[0, 0, 0]	n/a	FR1	0	R1044J
576.978	0.457	952670	REC_WORD	5.336	n/a	HORN	-999	4	[0, 0, 0]	n/a	FR1	0	R1044J
577.435	6.465	953127	REC_WORD	5.793	n/a	BOWL	-999	4	[0, 0, 0]	n/a	FR1	0	R1044J
583.9	16.075	959592	REC_WORD_VV	12.258	n/a	<>	-999	4	[0, 0, 0]	n/a	FR1	0	R1044J
599.975	0.976	975666	REC_WORD_VV	28.333	n/a	<>	-999	4	[0, 0, 0]	n/a	FR1	0	R1044J
600.951	0.704	976642	REC_WORD_VV	29.309	n/a	<>	-999	4	[0, 0, 0]	n/a	FR1	0	R1044J
601.655	15.546	977346	REC_END	n/a	n/a	n/a	-999	4	[0, 0, 0]	n/a	FR1	0	R1044J
617.201	10.0	992892	COUNTDOWN_START	n/a	n/a	n/a	-999	5	[0, 0, 0]	n/a	FR1	0	R1044J
617.202	10.427	992893	TRIAL	n/a	n/a	n/a	-999	5	[0, 0, 0]	n/a	FR1	0	R1044J
627.629	0.007	1003319	COUNTDOWN_END	n/a	n/a	n/a	-999	5	[0, 0, 0]	n/a	FR1	0	R1044J
627.636	1.6	1003326	ORIENT	n/a	n/a	n/a	-999	5	[0, 0, 0]	n/a	FR1	0	R1044J
630.191	1.6	1005881	WORD	n/a	wordpools/wordpool_EN.txt	HAWK	1	5	[0, 0, 0]	n/a	FR1	0	R1044J
632.629	1.6	1008319	WORD	n/a	wordpools/wordpool_EN.txt	MAIL	2	5	[0, 0, 0]	n/a	FR1	0	R1044J
635.115	1.6	1010805	WORD	n/a	wordpools/wordpool_EN.txt	BOOK	3	5	[0, 0, 0]	n/a	FR1	0	R1044J
637.535	1.6	1013225	WORD	n/a	wordpools/wordpool_EN.txt	STORE	4	5	[0, 0, 0]	n/a	FR1	0	R1044J
640.157	1.6	1015847	WORD	n/a	wordpools/wordpool_EN.txt	HORSE	5	5	[0, 0, 0]	n/a	FR1	0	R1044J
642.711	1.6	1018401	WORD	n/a	wordpools/wordpool_EN.txt	CORD	6	5	[0, 0, 0]	n/a	FR1	0	R1044J
645.265	1.6	1020955	WORD	n/a	wordpools/wordpool_EN.txt	BAT	7	5	[0, 0, 0]	n/a	FR1	0	R1044J
647.77	1.6	1023460	WORD	n/a	wordpools/wordpool_EN.txt	PEA	8	5	[0, 0, 0]	n/a	FR1	0	R1044J
650.307	1.6	1025996	WORD	n/a	wordpools/wordpool_EN.txt	JET	9	5	[0, 0, 0]	n/a	FR1	0	R1044J
652.912	1.6	1028601	WORD	n/a	wordpools/wordpool_EN.txt	JAIL	10	5	[0, 0, 0]	n/a	FR1	0	R1044J
655.431	1.6	1031120	WORD	n/a	wordpools/wordpool_EN.txt	TOOL	11	5	[0, 0, 0]	n/a	FR1	0	R1044J
657.903	1.6	1033592	WORD	n/a	wordpools/wordpool_EN.txt	SHEET	12	5	[0, 0, 0]	n/a	FR1	0	R1044J
659.522	0.0	1035211	DISTRACT_START	n/a	n/a	n/a	-999	5	[0, 0, 0]	n/a	FR1	0	R1044J
659.522	0.016	1035211	START	n/a	n/a	n/a	-999	5	[-999, -999, -999]	n/a	FR1	0	R1044J
659.538	7.28	1035227	PROB	7.249	n/a	n/a	-999	5	[9, 7, 2]	18.0	FR1	0	R1044J
666.818	6.962	1042507	PROB	6.929	n/a	n/a	-999	5	[3, 9, 6]	18.0	FR1	0	R1044J
673.78	4.573	1049469	PROB	4.55	n/a	n/a	-999	5	[2, 3, 9]	14.0	FR1	0	R1044J
678.353	6.961	1054041	PROB	6.961	n/a	n/a	-999	5	[1, 3, 5]	9.0	FR1	0	R1044J
685.314	0.018	1061002	STOP	n/a	n/a	n/a	-999	5	[-999, -999, -999]	n/a	FR1	0	R1044J
685.332	1.152	1061020	DISTRACT_END	n/a	n/a	n/a	-999	5	[0, 0, 0]	n/a	FR1	0	R1044J
686.484	10.998	1062172	REC_START	n/a	n/a	n/a	-999	5	[0, 0, 0]	n/a	FR1	0	R1044J
697.482	0.578	1073170	REC_WORD	10.998	n/a	HAWK	-999	5	[0, 0, 0]	n/a	FR1	0	R1044J
698.06	0.67	1073748	REC_WORD	11.576	n/a	MAIL	-999	5	[0, 0, 0]	n/a	FR1	0	R1044J
698.73	0.396	1074418	REC_WORD	12.246	n/a	BOOK	-999	5	[0, 0, 0]	n/a	FR1	0	R1044J
699.126	2.737	1074814	REC_WORD	12.642	n/a	STORE	-999	5	[0, 0, 0]	n/a	FR1	0	R1044J
701.863	7.387	1077551	REC_WORD_VV	15.379	n/a	<>	-999	5	[0, 0, 0]	n/a	FR1	0	R1044J
709.25	0.549	1084937	REC_WORD	22.766	n/a	CORD	-999	5	[0, 0, 0]	n/a	FR1	0	R1044J
709.799	0.616	1085486	REC_WORD	23.315	n/a	COURSE	-999	5	[0, 0, 0]	n/a	FR1	0	R1044J
710.415	1.214	1086102	REC_WORD_VV	23.931	n/a	<>	-999	5	[0, 0, 0]	n/a	FR1	0	R1044J
711.629	0.972	1087316	REC_WORD_VV	25.145	n/a	<>	-999	5	[0, 0, 0]	n/a	FR1	0	R1044J
712.601	3.111	1088288	REC_WORD_VV	26.117	n/a	<>	-999	5	[0, 0, 0]	n/a	FR1	0	R1044J
715.712	0.793	1091399	REC_WORD_VV	29.228	n/a	<>	-999	5	[0, 0, 0]	n/a	FR1	0	R1044J
716.505	19.313	1092192	REC_END	n/a	n/a	n/a	-999	5	[0, 0, 0]	n/a	FR1	0	R1044J
735.818	0.0	1111504	TRIAL	n/a	n/a	n/a	-999	6	[0, 0, 0]	n/a	FR1	0	R1044J
735.818	10.0	1111504	COUNTDOWN_START	n/a	n/a	n/a	-999	6	[0, 0, 0]	n/a	FR1	0	R1044J
746.246	0.006	1121932	COUNTDOWN_END	n/a	n/a	n/a	-999	6	[0, 0, 0]	n/a	FR1	0	R1044J
746.252	1.6	1121938	ORIENT	n/a	n/a	n/a	-999	6	[0, 0, 0]	n/a	FR1	0	R1044J
748.823	1.6	1124509	WORD	n/a	wordpools/wordpool_EN.txt	MOUTH	1	6	[0, 0, 0]	n/a	FR1	0	R1044J
751.294	1.6	1126980	WORD	n/a	wordpools/wordpool_EN.txt	DOLL	2	6	[0, 0, 0]	n/a	FR1	0	R1044J
753.714	1.6	1129400	WORD	n/a	wordpools/wordpool_EN.txt	SEAL	3	6	[0, 0, 0]	n/a	FR1	0	R1044J
756.286	1.6	1131972	WORD	n/a	wordpools/wordpool_EN.txt	WEED	4	6	[0, 0, 0]	n/a	FR1	0	R1044J
758.79	1.6	1134476	WORD	n/a	wordpools/wordpool_EN.txt	CLOWN	5	6	[0, 0, 0]	n/a	FR1	0	R1044J
761.244	1.6	1136929	WORD	n/a	wordpools/wordpool_EN.txt	TIE	6	6	[0, 0, 0]	n/a	FR1	0	R1044J
763.848	1.6	1139533	WORD	n/a	wordpools/wordpool_EN.txt	PET	7	6	[0, 0, 0]	n/a	FR1	0	R1044J
766.368	1.6	1142053	WORD	n/a	wordpools/wordpool_EN.txt	CLOTH	8	6	[0, 0, 0]	n/a	FR1	0	R1044J
768.841	1.6	1144526	WORD	n/a	wordpools/wordpool_EN.txt	FAN	9	6	[0, 0, 0]	n/a	FR1	0	R1044J
771.328	1.6	1147013	WORD	n/a	wordpools/wordpool_EN.txt	WOLF	10	6	[0, 0, 0]	n/a	FR1	0	R1044J
773.782	1.6	1149467	WORD	n/a	wordpools/wordpool_EN.txt	RAT	11	6	[0, 0, 0]	n/a	FR1	0	R1044J
776.335	1.6	1152020	WORD	n/a	wordpools/wordpool_EN.txt	SOCK	12	6	[0, 0, 0]	n/a	FR1	0	R1044J
777.939	0.0	1153624	DISTRACT_START	n/a	n/a	n/a	-999	6	[0, 0, 0]	n/a	FR1	0	R1044J
777.939	0.017	1153624	START	n/a	n/a	n/a	-999	6	[-999, -999, -999]	n/a	FR1	0	R1044J
777.956	4.123	1153641	PROB	4.093	n/a	n/a	-999	6	[6, 5, 1]	12.0	FR1	0	R1044J
782.079	8.614	1157764	PROB	8.588	n/a	n/a	-999	6	[8, 8, 7]	23.0	FR1	0	R1044J
790.693	3.022	1166377	PROB	2.998	n/a	n/a	-999	6	[4, 6, 1]	11.0	FR1	0	R1044J
793.715	21.738	1169399	PROB	21.738	n/a	n/a	-999	6	[7, 8, 5]	20.0	FR1	0	R1044J
815.453	0.014	1191137	STOP	n/a	n/a	n/a	-999	6	[-999, -999, -999]	n/a	FR1	0	R1044J
815.467	1.087	1191151	DISTRACT_END	n/a	n/a	n/a	-999	6	[0, 0, 0]	n/a	FR1	0	R1044J
816.554	3.777	1192237	REC_START	n/a	n/a	n/a	-999	6	[0, 0, 0]	n/a	FR1	0	R1044J
820.331	1.45	1196014	REC_WORD_VV	3.777	n/a	<>	-999	6	[0, 0, 0]	n/a	FR1	0	R1044J
821.781	4.946	1197464	REC_WORD_VV	5.227	n/a	<>	-999	6	[0, 0, 0]	n/a	FR1	0	R1044J
826.727	2.274	1202410	REC_WORD_VV	10.173	n/a	<>	-999	6	[0, 0, 0]	n/a	FR1	0	R1044J
829.001	2.103	1204684	REC_WORD_VV	12.447	n/a	<>	-999	6	[0, 0, 0]	n/a	FR1	0	R1044J
831.104	3.864	1206787	REC_WORD_VV	14.55	n/a	<>	-999	6	[0, 0, 0]	n/a	FR1	0	R1044J
834.968	0.368	1210651	REC_WORD_VV	18.414	n/a	<>	-999	6	[0, 0, 0]	n/a	FR1	0	R1044J
835.336	2.046	1211019	REC_WORD	18.782	n/a	HOUSE	-999	6	[0, 0, 0]	n/a	FR1	0	R1044J
837.382	4.159	1213065	REC_WORD	20.828	n/a	HORSE	-999	6	[0, 0, 0]	n/a	FR1	0	R1044J
841.541	1.174	1217224	REC_WORD_VV	24.987	n/a	<>	-999	6	[0, 0, 0]	n/a	FR1	0	R1044J
842.715	3.86	1218398	REC_WORD_VV	26.161	n/a	<>	-999	6	[0, 0, 0]	n/a	FR1	0	R1044J
846.575	11.466	1222257	REC_END	n/a	n/a	n/a	-999	6	[0, 0, 0]	n/a	FR1	0	R1044J
858.041	10.0	1233723	COUNTDOWN_START	n/a	n/a	n/a	-999	7	[0, 0, 0]	n/a	FR1	0	R1044J
858.042	10.427	1233724	TRIAL	n/a	n/a	n/a	-999	7	[0, 0, 0]	n/a	FR1	0	R1044J
868.469	0.004	1244151	COUNTDOWN_END	n/a	n/a	n/a	-999	7	[0, 0, 0]	n/a	FR1	0	R1044J
868.473	1.6	1244155	ORIENT	n/a	n/a	n/a	-999	7	[0, 0, 0]	n/a	FR1	0	R1044J
870.862	1.6	1246544	WORD	n/a	wordpools/wordpool_EN.txt	CHIN	1	7	[0, 0, 0]	n/a	FR1	0	R1044J
873.249	1.6	1248930	WORD	n/a	wordpools/wordpool_EN.txt	SEED	2	7	[0, 0, 0]	n/a	FR1	0	R1044J
875.72	1.6	1251401	WORD	n/a	wordpools/wordpool_EN.txt	SOUP	3	7	[0, 0, 0]	n/a	FR1	0	R1044J
878.141	1.6	1253822	WORD	n/a	wordpools/wordpool_EN.txt	VINE	4	7	[0, 0, 0]	n/a	FR1	0	R1044J
880.578	1.6	1256259	WORD	n/a	wordpools/wordpool_EN.txt	CHAIR	5	7	[0, 0, 0]	n/a	FR1	0	R1044J
883.115	1.6	1258796	WORD	n/a	wordpools/wordpool_EN.txt	BRANCH	6	7	[0, 0, 0]	n/a	FR1	0	R1044J
885.519	1.6	1261200	WORD	n/a	wordpools/wordpool_EN.txt	FUDGE	7	7	[0, 0, 0]	n/a	FR1	0	R1044J
887.974	1.6	1263655	WORD	n/a	wordpools/wordpool_EN.txt	FRUIT	8	7	[0, 0, 0]	n/a	FR1	0	R1044J
890.528	1.6	1266209	WORD	n/a	wordpools/wordpool_EN.txt	JUICE	9	7	[0, 0, 0]	n/a	FR1	0	R1044J
892.965	1.6	1268646	WORD	n/a	wordpools/wordpool_EN.txt	TOE	10	7	[0, 0, 0]	n/a	FR1	0	R1044J
895.369	1.6	1271050	WORD	n/a	wordpools/wordpool_EN.txt	PIT	11	7	[0, 0, 0]	n/a	FR1	0	R1044J
897.757	1.6	1273438	WORD	n/a	wordpools/wordpool_EN.txt	STEAK	12	7	[0, 0, 0]	n/a	FR1	0	R1044J
899.375	0.001	1275055	DISTRACT_START	n/a	n/a	n/a	-999	7	[0, 0, 0]	n/a	FR1	0	R1044J
899.376	0.016	1275056	START	n/a	n/a	n/a	-999	7	[-999, -999, -999]	n/a	FR1	0	R1044J
899.392	17.414	1275072	PROB	17.383	n/a	n/a	-999	7	[7, 8, 9]	24.0	FR1	0	R1044J
916.806	12.488	1292486	PROB	12.488	n/a	n/a	-999	7	[8, 9, 6]	23.0	FR1	0	R1044J
929.294	0.016	1304973	STOP	n/a	n/a	n/a	-999	7	[-999, -999, -999]	n/a	FR1	0	R1044J
929.31	1.47	1304989	DISTRACT_END	n/a	n/a	n/a	-999	7	[0, 0, 0]	n/a	FR1	0	R1044J
930.78	3.567	1306459	REC_START	n/a	n/a	n/a	-999	7	[0, 0, 0]	n/a	FR1	0	R1044J
934.347	1.207	1310026	REC_WORD_VV	3.567	n/a	<>	-999	7	[0, 0, 0]	n/a	FR1	0	R1044J
935.554	10.445	1311233	REC_WORD_VV	4.774	n/a	<>	-999	7	[0, 0, 0]	n/a	FR1	0	R1044J
945.999	0.929	1321678	REC_WORD_VV	15.219	n/a	<>	-999	7	[0, 0, 0]	n/a	FR1	0	R1044J
946.928	2.717	1322607	REC_WORD_VV	16.148	n/a	<>	-999	7	[0, 0, 0]	n/a	FR1	0	R1044J
949.645	1.416	1325324	REC_WORD_VV	18.865	n/a	<>	-999	7	[0, 0, 0]	n/a	FR1	0	R1044J
951.061	2.458	1326740	REC_WORD_VV	20.281	n/a	<>	-999	7	[0, 0, 0]	n/a	FR1	0	R1044J
953.519	5.201	1329198	REC_WORD_VV	22.739	n/a	<>	-999	7	[0, 0, 0]	n/a	FR1	0	R1044J
958.72	2.074	1334398	REC_WORD_VV	27.94	n/a	<>	-999	7	[0, 0, 0]	n/a	FR1	0	R1044J
960.794	71.605	1336472	REC_END	n/a	n/a	n/a	-999	7	[0, 0, 0]	n/a	FR1	0	R1044J
1032.399	0.0	1408075	TRIAL	n/a	n/a	n/a	-999	8	[0, 0, 0]	n/a	FR1	0	R1044J
1032.399	10.0	1408075	COUNTDOWN_START	n/a	n/a	n/a	-999	8	[0, 0, 0]	n/a	FR1	0	R1044J
1042.827	0.007	1418502	COUNTDOWN_END	n/a	n/a	n/a	-999	8	[0, 0, 0]	n/a	FR1	0	R1044J
1042.834	1.6	1418509	ORIENT	n/a	n/a	n/a	-999	8	[0, 0, 0]	n/a	FR1	0	R1044J
1045.421	1.6	1421096	WORD	n/a	wordpools/wordpool_EN.txt	SUN	1	8	[0, 0, 0]	n/a	FR1	0	R1044J
1047.859	1.6	1423534	WORD	n/a	wordpools/wordpool_EN.txt	CAPE	2	8	[0, 0, 0]	n/a	FR1	0	R1044J
1050.247	1.6	1425922	WORD	n/a	wordpools/wordpool_EN.txt	BATH	3	8	[0, 0, 0]	n/a	FR1	0	R1044J
1052.851	1.6	1428526	WORD	n/a	wordpools/wordpool_EN.txt	SAIL	4	8	[0, 0, 0]	n/a	FR1	0	R1044J
1055.272	1.6	1430947	WORD	n/a	wordpools/wordpool_EN.txt	LEG	5	8	[0, 0, 0]	n/a	FR1	0	R1044J
1057.659	1.6	1433334	WORD	n/a	wordpools/wordpool_EN.txt	ROSE	6	8	[0, 0, 0]	n/a	FR1	0	R1044J
1060.214	1.6	1435889	WORD	n/a	wordpools/wordpool_EN.txt	RUG	7	8	[0, 0, 0]	n/a	FR1	0	R1044J
1062.718	1.6	1438393	WORD	n/a	wordpools/wordpool_EN.txt	MOOSE	8	8	[0, 0, 0]	n/a	FR1	0	R1044J
1065.172	1.6	1440847	WORD	n/a	wordpools/wordpool_EN.txt	BOAT	9	8	[0, 0, 0]	n/a	FR1	0	R1044J
1067.643	1.6	1443317	WORD	n/a	wordpools/wordpool_EN.txt	ICE	10	8	[0, 0, 0]	n/a	FR1	0	R1044J
1070.18	1.6	1445854	WORD	n/a	wordpools/wordpool_EN.txt	CAKE	11	8	[0, 0, 0]	n/a	FR1	0	R1044J
1072.652	1.6	1448326	WORD	n/a	wordpools/wordpool_EN.txt	FENCE	12	8	[0, 0, 0]	n/a	FR1	0	R1044J
1074.27	0.001	1449944	DISTRACT_START	n/a	n/a	n/a	-999	8	[0, 0, 0]	n/a	FR1	0	R1044J
1074.271	0.016	1449945	START	n/a	n/a	n/a	-999	8	[-999, -999, -999]	n/a	FR1	0	R1044J
1074.287	21.68	1449961	PROB	21.68	n/a	n/a	-999	8	[7, 4, 3]	14.0	FR1	0	R1044J
1095.967	0.007	1471640	STOP	n/a	n/a	n/a	-999	8	[-999, -999, -999]	n/a	FR1	0	R1044J
1095.974	1.103	1471647	DISTRACT_END	n/a	n/a	n/a	-999	8	[0, 0, 0]	n/a	FR1	0	R1044J
1097.077	0.433	1472750	REC_START	n/a	n/a	n/a	-999	8	[0, 0, 0]	n/a	FR1	0	R1044J
1097.51	0.359	1473183	REC_WORD	0.433	n/a	SUN	-999	8	[0, 0, 0]	n/a	FR1	0	R1044J
1097.869	0.568	1473542	REC_WORD	0.792	n/a	CAPE	-999	8	[0, 0, 0]	n/a	FR1	0	R1044J
1098.437	0.261	1474110	REC_WORD	1.36	n/a	BATH	-999	8	[0, 0, 0]	n/a	FR1	0	R1044J
1098.698	0.731	1474371	REC_WORD	1.621	n/a	SAIL	-999	8	[0, 0, 0]	n/a	FR1	0	R1044J
1099.429	9.24	1475102	REC_WORD	2.352	n/a	ROSE	-999	8	[0, 0, 0]	n/a	FR1	0	R1044J
1108.669	1.207	1484342	REC_WORD_VV	11.592	n/a	<>	-999	8	[0, 0, 0]	n/a	FR1	0	R1044J
1109.876	17.213	1485549	REC_WORD_VV	12.799	n/a	<>	-999	8	[0, 0, 0]	n/a	FR1	0	R1044J
1127.089	17.415	1502761	REC_END	n/a	n/a	n/a	-999	8	[0, 0, 0]	n/a	FR1	0	R1044J
1144.504	10.0	1520176	COUNTDOWN_START	n/a	n/a	n/a	-999	9	[0, 0, 0]	n/a	FR1	0	R1044J
1144.505	10.427	1520177	TRIAL	n/a	n/a	n/a	-999	9	[0, 0, 0]	n/a	FR1	0	R1044J
1154.932	0.008	1530603	COUNTDOWN_END	n/a	n/a	n/a	-999	9	[0, 0, 0]	n/a	FR1	0	R1044J
1154.94	1.6	1530611	ORIENT	n/a	n/a	n/a	-999	9	[0, 0, 0]	n/a	FR1	0	R1044J
1157.343	1.6	1533014	WORD	n/a	wordpools/wordpool_EN.txt	DOOR	1	9	[0, 0, 0]	n/a	FR1	0	R1044J
1159.915	1.6	1535586	WORD	n/a	wordpools/wordpool_EN.txt	SMILE	2	9	[0, 0, 0]	n/a	FR1	0	R1044J
1162.469	1.6	1538140	WORD	n/a	wordpools/wordpool_EN.txt	CLOCK	3	9	[0, 0, 0]	n/a	FR1	0	R1044J
1164.89	1.6	1540561	WORD	n/a	wordpools/wordpool_EN.txt	OAR	4	9	[0, 0, 0]	n/a	FR1	0	R1044J
1167.493	1.6	1543164	WORD	n/a	wordpools/wordpool_EN.txt	LAMP	5	9	[0, 0, 0]	n/a	FR1	0	R1044J
1169.998	1.6	1545669	WORD	n/a	wordpools/wordpool_EN.txt	STOVE	6	9	[0, 0, 0]	n/a	FR1	0	R1044J
1172.451	1.6	1548122	WORD	n/a	wordpools/wordpool_EN.txt	FLOOR	7	9	[0, 0, 0]	n/a	FR1	0	R1044J
1174.89	1.6	1550561	WORD	n/a	wordpools/wordpool_EN.txt	PEN	8	9	[0, 0, 0]	n/a	FR1	0	R1044J
1177.294	1.6	1552965	WORD	n/a	wordpools/wordpool_EN.txt	STICK	9	9	[0, 0, 0]	n/a	FR1	0	R1044J
1179.882	1.6	1555552	WORD	n/a	wordpools/wordpool_EN.txt	BOOT	10	9	[0, 0, 0]	n/a	FR1	0	R1044J
1182.452	1.6	1558122	WORD	n/a	wordpools/wordpool_EN.txt	DIME	11	9	[0, 0, 0]	n/a	FR1	0	R1044J
1184.89	1.6	1560560	WORD	n/a	wordpools/wordpool_EN.txt	ARM	12	9	[0, 0, 0]	n/a	FR1	0	R1044J
1186.508	0.001	1562178	DISTRACT_START	n/a	n/a	n/a	-999	9	[0, 0, 0]	n/a	FR1	0	R1044J
1186.509	0.016	1562179	START	n/a	n/a	n/a	-999	9	[-999, -999, -999]	n/a	FR1	0	R1044J
1186.525	6.095	1562195	PROB	6.067	n/a	n/a	-999	9	[5, 8, 4]	17.0	FR1	0	R1044J
1192.62	5.659	1568290	PROB	5.636	n/a	n/a	-999	9	[6, 4, 9]	19.0	FR1	0	R1044J
1198.279	9.08	1573949	PROB	9.08	n/a	n/a	-999	9	[4, 5, 1]	10.0	FR1	0	R1044J
1207.359	0.018	1583028	STOP	n/a	n/a	n/a	-999	9	[-999, -999, -999]	n/a	FR1	0	R1044J
1207.377	1.086	1583046	DISTRACT_END	n/a	n/a	n/a	-999	9	[0, 0, 0]	n/a	FR1	0	R1044J
1208.463	1.766	1584132	REC_START	n/a	n/a	n/a	-999	9	[0, 0, 0]	n/a	FR1	0	R1044J
1210.229	0.402	1585898	REC_WORD	1.766	n/a	DOOR	-999	9	[0, 0, 0]	n/a	FR1	0	R1044J
1210.631	1.332	1586300	REC_WORD	2.168	n/a	SMILE	-999	9	[0, 0, 0]	n/a	FR1	0	R1044J
1211.963	0.543	1587632	REC_WORD	3.5	n/a	CLOCK	-999	9	[0, 0, 0]	n/a	FR1	0	R1044J
1212.506	3.74	1588175	REC_WORD	4.043	n/a	AMP	-999	9	[0, 0, 0]	n/a	FR1	0	R1044J
1216.246	6.497	1591915	REC_WORD_VV	7.783	n/a	<>	-999	9	[0, 0, 0]	n/a	FR1	0	R1044J
1222.743	7.046	1598412	REC_WORD	14.28	n/a	DIME	-999	9	[0, 0, 0]	n/a	FR1	0	R1044J
1229.789	8.687	1605458	REC_WORD_VV	21.326	n/a	<>	-999	9	[0, 0, 0]	n/a	FR1	0	R1044J
1238.476	40.138	1614144	REC_END	n/a	n/a	n/a	-999	9	[0, 0, 0]	n/a	FR1	0	R1044J
1278.614	10.0	1654281	COUNTDOWN_START	n/a	n/a	n/a	-999	10	[0, 0, 0]	n/a	FR1	0	R1044J
1278.615	10.427	1654282	TRIAL	n/a	n/a	n/a	-999	10	[0, 0, 0]	n/a	FR1	0	R1044J
1289.042	0.006	1664709	COUNTDOWN_END	n/a	n/a	n/a	-999	10	[0, 0, 0]	n/a	FR1	0	R1044J
1289.048	1.6	1664715	ORIENT	n/a	n/a	n/a	-999	10	[0, 0, 0]	n/a	FR1	0	R1044J
1291.653	1.6	1667319	WORD	n/a	wordpools/wordpool_EN.txt	PHONE	1	10	[0, 0, 0]	n/a	FR1	0	R1044J
1294.157	1.6	1669823	WORD	n/a	wordpools/wordpool_EN.txt	GRAPE	2	10	[0, 0, 0]	n/a	FR1	0	R1044J
1296.745	1.6	1672411	WORD	n/a	wordpools/wordpool_EN.txt	KITE	3	10	[0, 0, 0]	n/a	FR1	0	R1044J
1299.167	1.6	1674833	WORD	n/a	wordpools/wordpool_EN.txt	CONE	4	10	[0, 0, 0]	n/a	FR1	0	R1044J
1301.736	1.6	1677402	WORD	n/a	wordpools/wordpool_EN.txt	LOCK	5	10	[0, 0, 0]	n/a	FR1	0	R1044J
1304.124	1.6	1679790	WORD	n/a	wordpools/wordpool_EN.txt	MILK	6	10	[0, 0, 0]	n/a	FR1	0	R1044J
1306.728	1.6	1682394	WORD	n/a	wordpools/wordpool_EN.txt	MOUSE	7	10	[0, 0, 0]	n/a	FR1	0	R1044J
1309.149	1.6	1684815	WORD	n/a	wordpools/wordpool_EN.txt	CROWN	8	10	[0, 0, 0]	n/a	FR1	0	R1044J
1311.553	1.6	1687219	WORD	n/a	wordpools/wordpool_EN.txt	PEAR	9	10	[0, 0, 0]	n/a	FR1	0	R1044J
1314.141	1.6	1689807	WORD	n/a	wordpools/wordpool_EN.txt	SNAKE	10	10	[0, 0, 0]	n/a	FR1	0	R1044J
1316.595	1.6	1692261	WORD	n/a	wordpools/wordpool_EN.txt	SHOE	11	10	[0, 0, 0]	n/a	FR1	0	R1044J
1319.032	1.6	1694697	WORD	n/a	wordpools/wordpool_EN.txt	PEARL	12	10	[0, 0, 0]	n/a	FR1	0	R1044J
1320.652	0.0	1696317	DISTRACT_START	n/a	n/a	n/a	-999	10	[0, 0, 0]	n/a	FR1	0	R1044J
1320.652	0.016	1696317	START	n/a	n/a	n/a	-999	10	[-999, -999, -999]	n/a	FR1	0	R1044J
1320.668	5.894	1696333	PROB	5.861	n/a	n/a	-999	10	[4, 7, 5]	6.0	FR1	0	R1044J
1326.562	6.16	1702227	PROB	6.124	n/a	n/a	-999	10	[4, 8, 1]	13.0	FR1	0	R1044J
1332.722	7.913	1708387	PROB	7.881	n/a	n/a	-999	10	[5, 9, 6]	20.0	FR1	0	R1044J
1340.635	11.918	1716300	PROB	11.918	n/a	n/a	-999	10	[7, 9, 2]	18.0	FR1	0	R1044J
1352.553	0.019	1728217	STOP	n/a	n/a	n/a	-999	10	[-999, -999, -999]	n/a	FR1	0	R1044J
1352.572	1.036	1728236	DISTRACT_END	n/a	n/a	n/a	-999	10	[0, 0, 0]	n/a	FR1	0	R1044J
1353.608	1.687	1729272	REC_START	n/a	n/a	n/a	-999	10	[0, 0, 0]	n/a	FR1	0	R1044J
1355.295	7.433	1730959	REC_WORD_VV	1.687	n/a	<>	-999	10	[0, 0, 0]	n/a	FR1	0	R1044J
1362.728	0.781	1738392	REC_WORD	9.12	n/a	CONE	-999	10	[0, 0, 0]	n/a	FR1	0	R1044J
1363.509	4.451	1739173	REC_WORD	9.901	n/a	CLOCK	-999	10	[0, 0, 0]	n/a	FR1	0	R1044J
1367.96	6.678	1743624	REC_WORD	14.352	n/a	MULE	-999	10	[0, 0, 0]	n/a	FR1	0	R1044J
1374.638	8.983	1750301	REC_WORD_VV	21.03	n/a	<>	-999	10	[0, 0, 0]	n/a	FR1	0	R1044J
1383.621	19.219	1759284	REC_END	n/a	n/a	n/a	-999	10	[0, 0, 0]	n/a	FR1	0	R1044J
1402.84	10.0	1778502	COUNTDOWN_START	n/a	n/a	n/a	-999	11	[0, 0, 0]	n/a	FR1	0	R1044J
1402.841	0.0	1778503	TRIAL	n/a	n/a	n/a	-999	11	[0, 0, 0]	n/a	FR1	0	R1044J
