onset	duration	sample	trial_type	response_time	stim_file	item_name	serialpos	list	test	answer	experiment	session	subject
0.0	16.983	245864	SESS_START	n/a	n/a	n/a	-999	-999	[0, 0, 0]	n/a	FR1	3	R1062J
16.983	10.0	262847	COUNTDOWN_START	n/a	n/a	n/a	-999	-999	[0, 0, 0]	n/a	FR1	3	R1062J
27.411	3.791	273275	COUNTDOWN_END	n/a	n/a	n/a	-999	-999	[0, 0, 0]	n/a	FR1	3	R1062J
31.202	1.6	277066	PRACTICE_WORD	n/a	n/a	FLOOD	1	-1	[0, 0, 0]	n/a	FR1	3	R1062J
33.718	1.6	279582	PRACTICE_WORD	n/a	n/a	RING	2	-1	[0, 0, 0]	n/a	FR1	3	R1062J
36.103	1.6	281967	PRACTICE_WORD	n/a	n/a	COTTON	3	-1	[0, 0, 0]	n/a	FR1	3	R1062J
38.57	1.6	284434	PRACTICE_WORD	n/a	n/a	WATCH	4	-1	[0, 0, 0]	n/a	FR1	3	R1062J
41.053	1.6	286917	PRACTICE_WORD	n/a	n/a	CHEST	5	-1	[0, 0, 0]	n/a	FR1	3	R1062J
43.487	1.6	289351	PRACTICE_WORD	n/a	n/a	BEAM	6	-1	[0, 0, 0]	n/a	FR1	3	R1062J
46.037	1.6	291901	PRACTICE_WORD	n/a	n/a	RHINO	7	-1	[0, 0, 0]	n/a	FR1	3	R1062J
48.621	1.6	294485	PRACTICE_WORD	n/a	n/a	CAMEL	8	-1	[0, 0, 0]	n/a	FR1	3	R1062J
51.055	1.6	296919	PRACTICE_WORD	n/a	n/a	IRON	9	-1	[0, 0, 0]	n/a	FR1	3	R1062J
53.572	1.6	299436	PRACTICE_WORD	n/a	n/a	TONGUE	10	-1	[0, 0, 0]	n/a	FR1	3	R1062J
55.989	1.6	301853	PRACTICE_WORD	n/a	n/a	ATTIC	11	-1	[0, 0, 0]	n/a	FR1	3	R1062J
58.389	1.6	304253	PRACTICE_WORD	n/a	n/a	WAGON	12	-1	[0, 0, 0]	n/a	FR1	3	R1062J
60.006	0.001	305870	PRACTICE_DISTRACT_START	n/a	n/a	n/a	-999	-1	[0, 0, 0]	n/a	FR1	3	R1062J
60.007	0.016	305871	START	n/a	n/a	n/a	-999	-1	[-999, -999, -999]	n/a	FR1	3	R1062J
60.023	16.619	305887	PROB	16.588	n/a	n/a	-999	-1	[5, 7, 7]	19.0	FR1	3	R1062J
76.642	8.144	322506	PROB	8.144	n/a	n/a	-999	-1	[4, 1, 1]	6.0	FR1	3	R1062J
84.786	0.006	330650	STOP	n/a	n/a	n/a	-999	-1	[-999, -999, -999]	n/a	FR1	3	R1062J
84.792	0.603	330656	PRACTICE_DISTRACT_END	n/a	n/a	n/a	-999	-1	[0, 0, 0]	n/a	FR1	3	R1062J
85.395	30.514	331259	PRACTICE_REC_START	n/a	n/a	n/a	-999	-1	[0, 0, 0]	n/a	FR1	3	R1062J
115.909	10.04	361773	PRACTICE_REC_END	n/a	n/a	n/a	-999	-1	[0, 0, 0]	n/a	FR1	3	R1062J
125.949	0.0	371813	TRIAL	n/a	n/a	n/a	-999	1	[0, 0, 0]	n/a	FR1	3	R1062J
125.949	10.0	371813	COUNTDOWN_START	n/a	n/a	n/a	-999	1	[0, 0, 0]	n/a	FR1	3	R1062J
136.377	0.007	382241	COUNTDOWN_END	n/a	n/a	n/a	-999	1	[0, 0, 0]	n/a	FR1	3	R1062J
136.384	1.6	382248	ORIENT	n/a	n/a	n/a	-999	1	[0, 0, 0]	n/a	FR1	3	R1062J
139.001	1.6	384865	WORD	n/a	wordpools/wordpool_EN.txt	SMILE	1	1	[0, 0, 0]	n/a	FR1	3	R1062J
141.534	1.6	387398	WORD	n/a	wordpools/wordpool_EN.txt	LAKE	2	1	[0, 0, 0]	n/a	FR1	3	R1062J
143.968	1.6	389832	WORD	n/a	wordpools/wordpool_EN.txt	TRAY	3	1	[0, 0, 0]	n/a	FR1	3	R1062J
146.585	1.6	392449	WORD	n/a	wordpools/wordpool_EN.txt	SUN	4	1	[0, 0, 0]	n/a	FR1	3	R1062J
149.002	1.6	394866	WORD	n/a	wordpools/wordpool_EN.txt	THUMB	5	1	[0, 0, 0]	n/a	FR1	3	R1062J
151.502	1.6	397366	WORD	n/a	wordpools/wordpool_EN.txt	SKY	6	1	[0, 0, 0]	n/a	FR1	3	R1062J
154.12	1.6	399984	WORD	n/a	wordpools/wordpool_EN.txt	BEACH	7	1	[0, 0, 0]	n/a	FR1	3	R1062J
156.57	1.6	402434	WORD	n/a	wordpools/wordpool_EN.txt	BEAK	8	1	[0, 0, 0]	n/a	FR1	3	R1062J
159.187	1.6	405051	WORD	n/a	wordpools/wordpool_EN.txt	WALL	9	1	[0, 0, 0]	n/a	FR1	3	R1062J
161.703	1.6	407567	WORD	n/a	wordpools/wordpool_EN.txt	STORM	10	1	[0, 0, 0]	n/a	FR1	3	R1062J
164.088	1.6	409952	WORD	n/a	wordpools/wordpool_EN.txt	BIRD	11	1	[0, 0, 0]	n/a	FR1	3	R1062J
166.488	1.6	412352	WORD	n/a	wordpools/wordpool_EN.txt	TIE	12	1	[0, 0, 0]	n/a	FR1	3	R1062J
168.105	0.001	413969	DISTRACT_START	n/a	n/a	n/a	-999	1	[0, 0, 0]	n/a	FR1	3	R1062J
168.106	0.016	413970	START	n/a	n/a	n/a	-999	1	[-999, -999, -999]	n/a	FR1	3	R1062J
168.122	13.501	413986	PROB	13.478	n/a	n/a	-999	1	[6, 7, 3]	18.0	FR1	3	R1062J
181.623	15.521	427487	PROB	15.521	n/a	n/a	-999	1	[7, 7, 5]	19.0	FR1	3	R1062J
197.144	0.015	443008	STOP	n/a	n/a	n/a	-999	1	[-999, -999, -999]	n/a	FR1	3	R1062J
197.159	1.071	443023	DISTRACT_END	n/a	n/a	n/a	-999	1	[0, 0, 0]	n/a	FR1	3	R1062J
198.23	1.527	444094	REC_START	n/a	n/a	n/a	-999	1	[0, 0, 0]	n/a	FR1	3	R1062J
199.757	2.205	445621	REC_WORD	1.527	n/a	BEACH	-999	1	[0, 0, 0]	n/a	FR1	3	R1062J
201.962	14.762	447826	REC_WORD	3.732	n/a	BEAK	-999	1	[0, 0, 0]	n/a	FR1	3	R1062J
216.724	5.34	462588	REC_WORD	18.494	n/a	BIRD	-999	1	[0, 0, 0]	n/a	FR1	3	R1062J
222.064	6.173	467928	REC_WORD	23.834	n/a	BEAM	-999	1	[0, 0, 0]	n/a	FR1	3	R1062J
228.237	9.644	474101	REC_END	n/a	n/a	n/a	-999	1	[0, 0, 0]	n/a	FR1	3	R1062J
237.881	10.0	483745	COUNTDOWN_START	n/a	n/a	n/a	-999	2	[0, 0, 0]	n/a	FR1	3	R1062J
237.881	10.428	483745	TRIAL	n/a	n/a	n/a	-999	2	[0, 0, 0]	n/a	FR1	3	R1062J
248.309	0.007	494173	COUNTDOWN_END	n/a	n/a	n/a	-999	2	[0, 0, 0]	n/a	FR1	3	R1062J
248.316	1.6	494180	ORIENT	n/a	n/a	n/a	-999	2	[0, 0, 0]	n/a	FR1	3	R1062J
250.832	1.6	496696	WORD	n/a	wordpools/wordpool_EN.txt	LAMP	1	2	[0, 0, 0]	n/a	FR1	3	R1062J
253.35	1.6	499214	WORD	n/a	wordpools/wordpool_EN.txt	BOX	2	2	[0, 0, 0]	n/a	FR1	3	R1062J
255.816	1.6	501680	WORD	n/a	wordpools/wordpool_EN.txt	CHAIR	3	2	[0, 0, 0]	n/a	FR1	3	R1062J
258.201	1.6	504065	WORD	n/a	wordpools/wordpool_EN.txt	PHONE	4	2	[0, 0, 0]	n/a	FR1	3	R1062J
260.684	1.6	506548	WORD	n/a	wordpools/wordpool_EN.txt	GATE	5	2	[0, 0, 0]	n/a	FR1	3	R1062J
263.218	1.6	509082	WORD	n/a	wordpools/wordpool_EN.txt	OAK	6	2	[0, 0, 0]	n/a	FR1	3	R1062J
265.602	1.6	511466	WORD	n/a	wordpools/wordpool_EN.txt	SHARK	7	2	[0, 0, 0]	n/a	FR1	3	R1062J
268.153	1.6	514017	WORD	n/a	wordpools/wordpool_EN.txt	LOCK	8	2	[0, 0, 0]	n/a	FR1	3	R1062J
270.536	1.6	516400	WORD	n/a	wordpools/wordpool_EN.txt	STREET	9	2	[0, 0, 0]	n/a	FR1	3	R1062J
272.936	1.6	518800	WORD	n/a	wordpools/wordpool_EN.txt	MAZE	10	2	[0, 0, 0]	n/a	FR1	3	R1062J
275.453	1.6	521317	WORD	n/a	wordpools/wordpool_EN.txt	CLOCK	11	2	[0, 0, 0]	n/a	FR1	3	R1062J
278.037	1.6	523901	WORD	n/a	wordpools/wordpool_EN.txt	LAWN	12	2	[0, 0, 0]	n/a	FR1	3	R1062J
279.653	0.001	525517	DISTRACT_START	n/a	n/a	n/a	-999	2	[0, 0, 0]	n/a	FR1	3	R1062J
279.654	0.016	525518	START	n/a	n/a	n/a	-999	2	[-999, -999, -999]	n/a	FR1	3	R1062J
279.67	19.32	525534	PROB	19.288	n/a	n/a	-999	2	[9, 9, 8]	26.0	FR1	3	R1062J
298.99	21.27	544854	PROB	21.27	n/a	n/a	-999	2	[3, 7, 9]	19.0	FR1	3	R1062J
320.26	0.016	566124	STOP	n/a	n/a	n/a	-999	2	[-999, -999, -999]	n/a	FR1	3	R1062J
320.276	1.202	566140	DISTRACT_END	n/a	n/a	n/a	-999	2	[0, 0, 0]	n/a	FR1	3	R1062J
321.478	21.863	567342	REC_START	n/a	n/a	n/a	-999	2	[0, 0, 0]	n/a	FR1	3	R1062J
343.341	3.469	589205	REC_WORD_VV	21.863	n/a	<>	-999	2	[0, 0, 0]	n/a	FR1	3	R1062J
346.81	1.309	592674	REC_WORD	25.332	n/a	BIRD	-999	2	[0, 0, 0]	n/a	FR1	3	R1062J
348.119	3.368	593983	REC_WORD	26.641	n/a	BEAK	-999	2	[0, 0, 0]	n/a	FR1	3	R1062J
351.487	9.929	597351	REC_END	n/a	n/a	n/a	-999	2	[0, 0, 0]	n/a	FR1	3	R1062J
361.416	0.0	607280	TRIAL	n/a	n/a	n/a	-999	3	[0, 0, 0]	n/a	FR1	3	R1062J
361.416	10.0	607280	COUNTDOWN_START	n/a	n/a	n/a	-999	3	[0, 0, 0]	n/a	FR1	3	R1062J
371.844	0.022	617708	COUNTDOWN_END	n/a	n/a	n/a	-999	3	[0, 0, 0]	n/a	FR1	3	R1062J
371.866	1.6	617730	ORIENT	n/a	n/a	n/a	-999	3	[0, 0, 0]	n/a	FR1	3	R1062J
374.434	1.6	620298	WORD	n/a	wordpools/wordpool_EN.txt	CROW	1	3	[0, 0, 0]	n/a	FR1	3	R1062J
376.817	1.6	622681	WORD	n/a	wordpools/wordpool_EN.txt	SOAP	2	3	[0, 0, 0]	n/a	FR1	3	R1062J
379.235	1.6	625099	WORD	n/a	wordpools/wordpool_EN.txt	RUG	3	3	[0, 0, 0]	n/a	FR1	3	R1062J
381.751	1.6	627615	WORD	n/a	wordpools/wordpool_EN.txt	SUIT	4	3	[0, 0, 0]	n/a	FR1	3	R1062J
384.352	1.6	630216	WORD	n/a	wordpools/wordpool_EN.txt	FAN	5	3	[0, 0, 0]	n/a	FR1	3	R1062J
386.902	1.6	632766	WORD	n/a	wordpools/wordpool_EN.txt	GOAT	6	3	[0, 0, 0]	n/a	FR1	3	R1062J
389.503	1.6	635367	WORD	n/a	wordpools/wordpool_EN.txt	RIB	7	3	[0, 0, 0]	n/a	FR1	3	R1062J
391.92	1.6	637784	WORD	n/a	wordpools/wordpool_EN.txt	BOOT	8	3	[0, 0, 0]	n/a	FR1	3	R1062J
394.32	1.6	640184	WORD	n/a	wordpools/wordpool_EN.txt	SHIRT	9	3	[0, 0, 0]	n/a	FR1	3	R1062J
396.703	1.6	642567	WORD	n/a	wordpools/wordpool_EN.txt	FENCE	10	3	[0, 0, 0]	n/a	FR1	3	R1062J
399.221	1.6	645085	WORD	n/a	wordpools/wordpool_EN.txt	BROOM	11	3	[0, 0, 0]	n/a	FR1	3	R1062J
401.82	1.6	647684	WORD	n/a	wordpools/wordpool_EN.txt	PANTS	12	3	[0, 0, 0]	n/a	FR1	3	R1062J
403.421	0.001	649285	DISTRACT_START	n/a	n/a	n/a	-999	3	[0, 0, 0]	n/a	FR1	3	R1062J
403.422	0.016	649286	START	n/a	n/a	n/a	-999	3	[-999, -999, -999]	n/a	FR1	3	R1062J
403.438	15.603	649302	PROB	15.58	n/a	n/a	-999	3	[5, 4, 6]	15.0	FR1	3	R1062J
419.041	6.921	664905	PROB	6.921	n/a	n/a	-999	3	[5, 7, 5]	17.0	FR1	3	R1062J
425.962	0.013	671826	STOP	n/a	n/a	n/a	-999	3	[-999, -999, -999]	n/a	FR1	3	R1062J
425.975	1.067	671839	DISTRACT_END	n/a	n/a	n/a	-999	3	[0, 0, 0]	n/a	FR1	3	R1062J
427.042	2.812	672906	REC_START	n/a	n/a	n/a	-999	3	[0, 0, 0]	n/a	FR1	3	R1062J
429.854	1.551	675718	REC_WORD	2.812	n/a	BEACH	-999	3	[0, 0, 0]	n/a	FR1	3	R1062J
431.405	1.202	677269	REC_WORD	4.363	n/a	BIRD	-999	3	[0, 0, 0]	n/a	FR1	3	R1062J
432.607	12.197	678471	REC_WORD	5.565	n/a	BERK	-999	3	[0, 0, 0]	n/a	FR1	3	R1062J
444.804	12.253	690668	REC_WORD	17.762	n/a	BEAM	-999	3	[0, 0, 0]	n/a	FR1	3	R1062J
457.057	24.126	702921	REC_END	n/a	n/a	n/a	-999	3	[0, 0, 0]	n/a	FR1	3	R1062J
481.183	0.0	727047	TRIAL	n/a	n/a	n/a	-999	4	[0, 0, 0]	n/a	FR1	3	R1062J
481.183	10.0	727047	COUNTDOWN_START	n/a	n/a	n/a	-999	4	[0, 0, 0]	n/a	FR1	3	R1062J
491.611	0.007	737475	COUNTDOWN_END	n/a	n/a	n/a	-999	4	[0, 0, 0]	n/a	FR1	3	R1062J
491.618	1.6	737482	ORIENT	n/a	n/a	n/a	-999	4	[0, 0, 0]	n/a	FR1	3	R1062J
494.151	1.6	740015	WORD	n/a	wordpools/wordpool_EN.txt	SPARK	1	4	[0, 0, 0]	n/a	FR1	3	R1062J
496.651	1.6	742515	WORD	n/a	wordpools/wordpool_EN.txt	SEAL	2	4	[0, 0, 0]	n/a	FR1	3	R1062J
499.269	1.6	745133	WORD	n/a	wordpools/wordpool_EN.txt	THREAD	3	4	[0, 0, 0]	n/a	FR1	3	R1062J
501.768	1.6	747632	WORD	n/a	wordpools/wordpool_EN.txt	DITCH	4	4	[0, 0, 0]	n/a	FR1	3	R1062J
504.203	1.6	750067	WORD	n/a	wordpools/wordpool_EN.txt	FLAG	5	4	[0, 0, 0]	n/a	FR1	3	R1062J
506.769	1.6	752633	WORD	n/a	wordpools/wordpool_EN.txt	SAIL	6	4	[0, 0, 0]	n/a	FR1	3	R1062J
509.287	1.6	755151	WORD	n/a	wordpools/wordpool_EN.txt	TANK	7	4	[0, 0, 0]	n/a	FR1	3	R1062J
511.719	1.6	757583	WORD	n/a	wordpools/wordpool_EN.txt	TOY	8	4	[0, 0, 0]	n/a	FR1	3	R1062J
514.221	1.6	760085	WORD	n/a	wordpools/wordpool_EN.txt	GRASS	9	4	[0, 0, 0]	n/a	FR1	3	R1062J
516.837	1.6	762701	WORD	n/a	wordpools/wordpool_EN.txt	SEA	10	4	[0, 0, 0]	n/a	FR1	3	R1062J
519.272	1.6	765136	WORD	n/a	wordpools/wordpool_EN.txt	SHIP	11	4	[0, 0, 0]	n/a	FR1	3	R1062J
521.821	1.6	767685	WORD	n/a	wordpools/wordpool_EN.txt	PIN	12	4	[0, 0, 0]	n/a	FR1	3	R1062J
523.422	0.001	769286	DISTRACT_START	n/a	n/a	n/a	-999	4	[0, 0, 0]	n/a	FR1	3	R1062J
523.423	0.016	769287	START	n/a	n/a	n/a	-999	4	[-999, -999, -999]	n/a	FR1	3	R1062J
523.439	7.901	769303	PROB	7.88	n/a	n/a	-999	4	[1, 4, 2]	7.0	FR1	3	R1062J
531.34	12.018	777204	PROB	11.995	n/a	n/a	-999	4	[4, 8, 3]	15.0	FR1	3	R1062J
543.358	13.568	789222	PROB	13.568	n/a	n/a	-999	4	[2, 6, 2]	10.0	FR1	3	R1062J
556.926	0.018	802790	STOP	n/a	n/a	n/a	-999	4	[-999, -999, -999]	n/a	FR1	3	R1062J
556.944	1.151	802808	DISTRACT_END	n/a	n/a	n/a	-999	4	[0, 0, 0]	n/a	FR1	3	R1062J
558.095	3.564	803959	REC_START	n/a	n/a	n/a	-999	4	[0, 0, 0]	n/a	FR1	3	R1062J
561.659	2.627	807523	REC_WORD	3.564	n/a	SPEECH	-999	4	[0, 0, 0]	n/a	FR1	3	R1062J
564.286	23.819	810150	REC_WORD	6.191	n/a	SPARK	-999	4	[0, 0, 0]	n/a	FR1	3	R1062J
588.105	20.113	833969	REC_END	n/a	n/a	n/a	-999	4	[0, 0, 0]	n/a	FR1	3	R1062J
608.218	0.0	854082	TRIAL	n/a	n/a	n/a	-999	5	[0, 0, 0]	n/a	FR1	3	R1062J
608.218	10.0	854082	COUNTDOWN_START	n/a	n/a	n/a	-999	5	[0, 0, 0]	n/a	FR1	3	R1062J
618.646	0.005	864510	COUNTDOWN_END	n/a	n/a	n/a	-999	5	[0, 0, 0]	n/a	FR1	3	R1062J
618.651	1.6	864515	ORIENT	n/a	n/a	n/a	-999	5	[0, 0, 0]	n/a	FR1	3	R1062J
621.103	1.6	866967	WORD	n/a	wordpools/wordpool_EN.txt	PEAR	1	5	[0, 0, 0]	n/a	FR1	3	R1062J
623.503	1.6	869367	WORD	n/a	wordpools/wordpool_EN.txt	CALF	2	5	[0, 0, 0]	n/a	FR1	3	R1062J
625.885	1.6	871749	WORD	n/a	wordpools/wordpool_EN.txt	FOX	3	5	[0, 0, 0]	n/a	FR1	3	R1062J
628.287	1.6	874151	WORD	n/a	wordpools/wordpool_EN.txt	EEL	4	5	[0, 0, 0]	n/a	FR1	3	R1062J
630.703	1.6	876567	WORD	n/a	wordpools/wordpool_EN.txt	MOUTH	5	5	[0, 0, 0]	n/a	FR1	3	R1062J
633.221	1.6	879085	WORD	n/a	wordpools/wordpool_EN.txt	ROOT	6	5	[0, 0, 0]	n/a	FR1	3	R1062J
635.638	1.6	881502	WORD	n/a	wordpools/wordpool_EN.txt	CHIEF	7	5	[0, 0, 0]	n/a	FR1	3	R1062J
638.255	1.6	884119	WORD	n/a	wordpools/wordpool_EN.txt	LEAF	8	5	[0, 0, 0]	n/a	FR1	3	R1062J
640.804	1.6	886668	WORD	n/a	wordpools/wordpool_EN.txt	TOOTH	9	5	[0, 0, 0]	n/a	FR1	3	R1062J
643.322	1.6	889186	WORD	n/a	wordpools/wordpool_EN.txt	WEB	10	5	[0, 0, 0]	n/a	FR1	3	R1062J
645.923	1.6	891787	WORD	n/a	wordpools/wordpool_EN.txt	CHALK	11	5	[0, 0, 0]	n/a	FR1	3	R1062J
648.307	1.6	894171	WORD	n/a	wordpools/wordpool_EN.txt	BRANCH	12	5	[0, 0, 0]	n/a	FR1	3	R1062J
649.924	0.0	895788	DISTRACT_START	n/a	n/a	n/a	-999	5	[0, 0, 0]	n/a	FR1	3	R1062J
649.924	0.016	895788	START	n/a	n/a	n/a	-999	5	[-999, -999, -999]	n/a	FR1	3	R1062J
649.94	26.902	895804	PROB	26.902	n/a	n/a	-999	5	[6, 7, 4]	14.0	FR1	3	R1062J
676.842	0.018	922706	STOP	n/a	n/a	n/a	-999	5	[-999, -999, -999]	n/a	FR1	3	R1062J
676.86	1.235	922724	DISTRACT_END	n/a	n/a	n/a	-999	5	[0, 0, 0]	n/a	FR1	3	R1062J
678.095	7.554	923959	REC_START	n/a	n/a	n/a	-999	5	[0, 0, 0]	n/a	FR1	3	R1062J
685.649	22.456	931513	REC_WORD	7.554	n/a	CALF	-999	5	[0, 0, 0]	n/a	FR1	3	R1062J
708.105	8.978	953969	REC_END	n/a	n/a	n/a	-999	5	[0, 0, 0]	n/a	FR1	3	R1062J
717.083	10.0	962947	COUNTDOWN_START	n/a	n/a	n/a	-999	6	[0, 0, 0]	n/a	FR1	3	R1062J
717.083	10.428	962947	TRIAL	n/a	n/a	n/a	-999	6	[0, 0, 0]	n/a	FR1	3	R1062J
727.511	0.007	973375	COUNTDOWN_END	n/a	n/a	n/a	-999	6	[0, 0, 0]	n/a	FR1	3	R1062J
727.518	1.6	973382	ORIENT	n/a	n/a	n/a	-999	6	[0, 0, 0]	n/a	FR1	3	R1062J
730.018	1.6	975882	WORD	n/a	wordpools/wordpool_EN.txt	BENCH	1	6	[0, 0, 0]	n/a	FR1	3	R1062J
732.418	1.6	978282	WORD	n/a	wordpools/wordpool_EN.txt	COUCH	2	6	[0, 0, 0]	n/a	FR1	3	R1062J
734.885	1.6	980749	WORD	n/a	wordpools/wordpool_EN.txt	POOL	3	6	[0, 0, 0]	n/a	FR1	3	R1062J
737.386	1.6	983250	WORD	n/a	wordpools/wordpool_EN.txt	AXE	4	6	[0, 0, 0]	n/a	FR1	3	R1062J
739.785	1.6	985649	WORD	n/a	wordpools/wordpool_EN.txt	TEA	5	6	[0, 0, 0]	n/a	FR1	3	R1062J
742.169	1.6	988033	WORD	n/a	wordpools/wordpool_EN.txt	FLOOR	6	6	[0, 0, 0]	n/a	FR1	3	R1062J
744.62	1.6	990484	WORD	n/a	wordpools/wordpool_EN.txt	LEG	7	6	[0, 0, 0]	n/a	FR1	3	R1062J
747.104	1.6	992968	WORD	n/a	wordpools/wordpool_EN.txt	HOUSE	8	6	[0, 0, 0]	n/a	FR1	3	R1062J
749.621	1.6	995485	WORD	n/a	wordpools/wordpool_EN.txt	PURSE	9	6	[0, 0, 0]	n/a	FR1	3	R1062J
752.004	1.6	997868	WORD	n/a	wordpools/wordpool_EN.txt	PALM	10	6	[0, 0, 0]	n/a	FR1	3	R1062J
754.422	1.6	1000286	WORD	n/a	wordpools/wordpool_EN.txt	DART	11	6	[0, 0, 0]	n/a	FR1	3	R1062J
756.888	1.6	1002752	WORD	n/a	wordpools/wordpool_EN.txt	SHOE	12	6	[0, 0, 0]	n/a	FR1	3	R1062J
758.506	0.0	1004370	DISTRACT_START	n/a	n/a	n/a	-999	6	[0, 0, 0]	n/a	FR1	3	R1062J
758.506	0.016	1004370	START	n/a	n/a	n/a	-999	6	[-999, -999, -999]	n/a	FR1	3	R1062J
758.522	6.233	1004386	PROB	6.206	n/a	n/a	-999	6	[1, 5, 2]	8.0	FR1	3	R1062J
764.755	9.603	1010619	PROB	9.573	n/a	n/a	-999	6	[8, 2, 4]	14.0	FR1	3	R1062J
774.358	11.305	1020222	PROB	11.305	n/a	n/a	-999	6	[1, 5, 3]	9.0	FR1	3	R1062J
785.663	0.012	1031527	STOP	n/a	n/a	n/a	-999	6	[-999, -999, -999]	n/a	FR1	3	R1062J
785.675	1.084	1031539	DISTRACT_END	n/a	n/a	n/a	-999	6	[0, 0, 0]	n/a	FR1	3	R1062J
786.759	5.774	1032623	REC_START	n/a	n/a	n/a	-999	6	[0, 0, 0]	n/a	FR1	3	R1062J
792.533	16.978	1038397	REC_WORD	5.774	n/a	PURSE	-999	6	[0, 0, 0]	n/a	FR1	3	R1062J
809.511	3.825	1055375	REC_WORD	22.752	n/a	COUCH	-999	6	[0, 0, 0]	n/a	FR1	3	R1062J
813.336	3.43	1059200	REC_WORD	26.577	n/a	BENCH	-999	6	[0, 0, 0]	n/a	FR1	3	R1062J
816.766	6.165	1062630	REC_END	n/a	n/a	n/a	-999	6	[0, 0, 0]	n/a	FR1	3	R1062J
822.931	0.0	1068795	TRIAL	n/a	n/a	n/a	-999	7	[0, 0, 0]	n/a	FR1	3	R1062J
822.931	10.0	1068795	COUNTDOWN_START	n/a	n/a	n/a	-999	7	[0, 0, 0]	n/a	FR1	3	R1062J
833.359	0.007	1079223	COUNTDOWN_END	n/a	n/a	n/a	-999	7	[0, 0, 0]	n/a	FR1	3	R1062J
833.366	1.6	1079230	ORIENT	n/a	n/a	n/a	-999	7	[0, 0, 0]	n/a	FR1	3	R1062J
835.832	1.6	1081696	WORD	n/a	wordpools/wordpool_EN.txt	SQUARE	1	7	[0, 0, 0]	n/a	FR1	3	R1062J
838.234	1.6	1084098	WORD	n/a	wordpools/wordpool_EN.txt	CART	2	7	[0, 0, 0]	n/a	FR1	3	R1062J
840.699	1.6	1086563	WORD	n/a	wordpools/wordpool_EN.txt	BOWL	3	7	[0, 0, 0]	n/a	FR1	3	R1062J
843.167	1.6	1089031	WORD	n/a	wordpools/wordpool_EN.txt	BOY	4	7	[0, 0, 0]	n/a	FR1	3	R1062J
845.683	1.6	1091547	WORD	n/a	wordpools/wordpool_EN.txt	WOOD	5	7	[0, 0, 0]	n/a	FR1	3	R1062J
848.302	1.6	1094166	WORD	n/a	wordpools/wordpool_EN.txt	BOAT	6	7	[0, 0, 0]	n/a	FR1	3	R1062J
850.701	1.6	1096565	WORD	n/a	wordpools/wordpool_EN.txt	CROWN	7	7	[0, 0, 0]	n/a	FR1	3	R1062J
853.169	1.6	1099033	WORD	n/a	wordpools/wordpool_EN.txt	CLAY	8	7	[0, 0, 0]	n/a	FR1	3	R1062J
855.652	1.6	1101516	WORD	n/a	wordpools/wordpool_EN.txt	CANE	9	7	[0, 0, 0]	n/a	FR1	3	R1062J
858.036	1.6	1103900	WORD	n/a	wordpools/wordpool_EN.txt	SLEEVE	10	7	[0, 0, 0]	n/a	FR1	3	R1062J
860.57	1.6	1106434	WORD	n/a	wordpools/wordpool_EN.txt	SWORD	11	7	[0, 0, 0]	n/a	FR1	3	R1062J
863.004	1.6	1108868	WORD	n/a	wordpools/wordpool_EN.txt	CUBE	12	7	[0, 0, 0]	n/a	FR1	3	R1062J
864.62	0.001	1110484	DISTRACT_START	n/a	n/a	n/a	-999	7	[0, 0, 0]	n/a	FR1	3	R1062J
864.621	0.016	1110485	START	n/a	n/a	n/a	-999	7	[-999, -999, -999]	n/a	FR1	3	R1062J
864.637	8.885	1110501	PROB	8.865	n/a	n/a	-999	7	[4, 4, 7]	15.0	FR1	3	R1062J
873.522	9.601	1119386	PROB	9.58	n/a	n/a	-999	7	[3, 7, 7]	17.0	FR1	3	R1062J
883.123	7.266	1128987	PROB	7.266	n/a	n/a	-999	7	[5, 3, 1]	9.0	FR1	3	R1062J
890.389	0.018	1136253	STOP	n/a	n/a	n/a	-999	7	[-999, -999, -999]	n/a	FR1	3	R1062J
890.407	1.168	1136271	DISTRACT_END	n/a	n/a	n/a	-999	7	[0, 0, 0]	n/a	FR1	3	R1062J
891.575	2.48	1137439	REC_START	n/a	n/a	n/a	-999	7	[0, 0, 0]	n/a	FR1	3	R1062J
894.055	9.843	1139919	REC_WORD	2.48	n/a	SQUARE	-999	7	[0, 0, 0]	n/a	FR1	3	R1062J
903.898	2.849	1149762	REC_WORD	12.323	n/a	COUCH	-999	7	[0, 0, 0]	n/a	FR1	3	R1062J
906.747	14.838	1152611	REC_WORD	15.172	n/a	BENCH	-999	7	[0, 0, 0]	n/a	FR1	3	R1062J
921.585	3.511	1167449	REC_END	n/a	n/a	n/a	-999	7	[0, 0, 0]	n/a	FR1	3	R1062J
925.096	10.0	1170960	COUNTDOWN_START	n/a	n/a	n/a	-999	8	[0, 0, 0]	n/a	FR1	3	R1062J
925.096	10.428	1170960	TRIAL	n/a	n/a	n/a	-999	8	[0, 0, 0]	n/a	FR1	3	R1062J
935.524	0.007	1181388	COUNTDOWN_END	n/a	n/a	n/a	-999	8	[0, 0, 0]	n/a	FR1	3	R1062J
935.531	1.6	1181395	ORIENT	n/a	n/a	n/a	-999	8	[0, 0, 0]	n/a	FR1	3	R1062J
937.914	1.6	1183778	WORD	n/a	wordpools/wordpool_EN.txt	FOAM	1	8	[0, 0, 0]	n/a	FR1	3	R1062J
940.331	1.6	1186195	WORD	n/a	wordpools/wordpool_EN.txt	PEARL	2	8	[0, 0, 0]	n/a	FR1	3	R1062J
942.714	1.6	1188578	WORD	n/a	wordpools/wordpool_EN.txt	PEACH	3	8	[0, 0, 0]	n/a	FR1	3	R1062J
945.115	1.6	1190979	WORD	n/a	wordpools/wordpool_EN.txt	BEAN	4	8	[0, 0, 0]	n/a	FR1	3	R1062J
947.665	1.6	1193529	WORD	n/a	wordpools/wordpool_EN.txt	JAR	5	8	[0, 0, 0]	n/a	FR1	3	R1062J
950.249	1.6	1196113	WORD	n/a	wordpools/wordpool_EN.txt	DESK	6	8	[0, 0, 0]	n/a	FR1	3	R1062J
952.815	1.6	1198679	WORD	n/a	wordpools/wordpool_EN.txt	SLIME	7	8	[0, 0, 0]	n/a	FR1	3	R1062J
955.35	1.6	1201214	WORD	n/a	wordpools/wordpool_EN.txt	CUP	8	8	[0, 0, 0]	n/a	FR1	3	R1062J
957.783	1.6	1203647	WORD	n/a	wordpools/wordpool_EN.txt	HOOK	9	8	[0, 0, 0]	n/a	FR1	3	R1062J
960.167	1.6	1206031	WORD	n/a	wordpools/wordpool_EN.txt	SOUP	10	8	[0, 0, 0]	n/a	FR1	3	R1062J
962.618	1.6	1208482	WORD	n/a	wordpools/wordpool_EN.txt	STOOL	11	8	[0, 0, 0]	n/a	FR1	3	R1062J
965.151	1.6	1211015	WORD	n/a	wordpools/wordpool_EN.txt	FRUIT	12	8	[0, 0, 0]	n/a	FR1	3	R1062J
966.767	0.001	1212631	DISTRACT_START	n/a	n/a	n/a	-999	8	[0, 0, 0]	n/a	FR1	3	R1062J
966.768	0.016	1212632	START	n/a	n/a	n/a	-999	8	[-999, -999, -999]	n/a	FR1	3	R1062J
966.784	5.452	1212648	PROB	5.419	n/a	n/a	-999	8	[5, 9, 5]	19.0	FR1	3	R1062J
972.236	19.422	1218100	PROB	19.422	n/a	n/a	-999	8	[6, 4, 9]	19.0	FR1	3	R1062J
991.658	0.013	1237522	STOP	n/a	n/a	n/a	-999	8	[-999, -999, -999]	n/a	FR1	3	R1062J
991.671	1.034	1237535	DISTRACT_END	n/a	n/a	n/a	-999	8	[0, 0, 0]	n/a	FR1	3	R1062J
992.705	7.931	1238569	REC_START	n/a	n/a	n/a	-999	8	[0, 0, 0]	n/a	FR1	3	R1062J
1000.636	17.636	1246500	REC_WORD	7.931	n/a	STOOL	-999	8	[0, 0, 0]	n/a	FR1	3	R1062J
1018.272	2.505	1264136	REC_WORD	25.567	n/a	BENCH	-999	8	[0, 0, 0]	n/a	FR1	3	R1062J
1020.777	1.947	1266641	REC_WORD	28.072	n/a	COUCH	-999	8	[0, 0, 0]	n/a	FR1	3	R1062J
1022.724	4.303	1268588	REC_END	n/a	n/a	n/a	-999	8	[0, 0, 0]	n/a	FR1	3	R1062J
1027.027	0.0	1272891	TRIAL	n/a	n/a	n/a	-999	9	[0, 0, 0]	n/a	FR1	3	R1062J
1027.027	10.0	1272891	COUNTDOWN_START	n/a	n/a	n/a	-999	9	[0, 0, 0]	n/a	FR1	3	R1062J
1037.455	0.007	1283319	COUNTDOWN_END	n/a	n/a	n/a	-999	9	[0, 0, 0]	n/a	FR1	3	R1062J
1037.462	1.6	1283326	ORIENT	n/a	n/a	n/a	-999	9	[0, 0, 0]	n/a	FR1	3	R1062J
1039.979	1.6	1285843	WORD	n/a	wordpools/wordpool_EN.txt	MAP	1	9	[0, 0, 0]	n/a	FR1	3	R1062J
1042.396	1.6	1288260	WORD	n/a	wordpools/wordpool_EN.txt	SEED	2	9	[0, 0, 0]	n/a	FR1	3	R1062J
1044.795	1.6	1290659	WORD	n/a	wordpools/wordpool_EN.txt	SHELL	3	9	[0, 0, 0]	n/a	FR1	3	R1062J
1047.23	1.6	1293094	WORD	n/a	wordpools/wordpool_EN.txt	GOLD	4	9	[0, 0, 0]	n/a	FR1	3	R1062J
1049.863	1.6	1295727	WORD	n/a	wordpools/wordpool_EN.txt	SNAKE	5	9	[0, 0, 0]	n/a	FR1	3	R1062J
1052.364	1.6	1298228	WORD	n/a	wordpools/wordpool_EN.txt	PLANT	6	9	[0, 0, 0]	n/a	FR1	3	R1062J
1054.83	1.6	1300694	WORD	n/a	wordpools/wordpool_EN.txt	WORLD	7	9	[0, 0, 0]	n/a	FR1	3	R1062J
1057.431	1.6	1303295	WORD	n/a	wordpools/wordpool_EN.txt	STEM	8	9	[0, 0, 0]	n/a	FR1	3	R1062J
1059.897	1.6	1305761	WORD	n/a	wordpools/wordpool_EN.txt	ROSE	9	9	[0, 0, 0]	n/a	FR1	3	R1062J
1062.348	1.6	1308212	WORD	n/a	wordpools/wordpool_EN.txt	MOTH	10	9	[0, 0, 0]	n/a	FR1	3	R1062J
1064.848	1.6	1310712	WORD	n/a	wordpools/wordpool_EN.txt	CLOUD	11	9	[0, 0, 0]	n/a	FR1	3	R1062J
1067.449	1.6	1313313	WORD	n/a	wordpools/wordpool_EN.txt	KEY	12	9	[0, 0, 0]	n/a	FR1	3	R1062J
1069.066	0.001	1314930	DISTRACT_START	n/a	n/a	n/a	-999	9	[0, 0, 0]	n/a	FR1	3	R1062J
1069.067	0.016	1314931	START	n/a	n/a	n/a	-999	9	[-999, -999, -999]	n/a	FR1	3	R1062J
1069.083	8.034	1314947	PROB	8.014	n/a	n/a	-999	9	[7, 4, 5]	16.0	FR1	3	R1062J
1077.117	11.002	1322981	PROB	10.972	n/a	n/a	-999	9	[2, 7, 8]	17.0	FR1	3	R1062J
1088.119	13.664	1333983	PROB	13.664	n/a	n/a	-999	9	[3, 2, 7]	12.0	FR1	3	R1062J
1101.783	0.003	1347647	STOP	n/a	n/a	n/a	-999	9	[-999, -999, -999]	n/a	FR1	3	R1062J
1101.786	1.136	1347650	DISTRACT_END	n/a	n/a	n/a	-999	9	[0, 0, 0]	n/a	FR1	3	R1062J
1102.922	2.87	1348786	REC_START	n/a	n/a	n/a	-999	9	[0, 0, 0]	n/a	FR1	3	R1062J
1105.792	27.139	1351656	REC_WORD	2.87	n/a	MOTH	-999	9	[0, 0, 0]	n/a	FR1	3	R1062J
1132.931	4.012	1378795	REC_END	n/a	n/a	n/a	-999	9	[0, 0, 0]	n/a	FR1	3	R1062J
1136.943	0.0	1382807	TRIAL	n/a	n/a	n/a	-999	10	[0, 0, 0]	n/a	FR1	3	R1062J
1136.943	10.0	1382807	COUNTDOWN_START	n/a	n/a	n/a	-999	10	[0, 0, 0]	n/a	FR1	3	R1062J
1147.371	0.006	1393235	COUNTDOWN_END	n/a	n/a	n/a	-999	10	[0, 0, 0]	n/a	FR1	3	R1062J
1147.377	1.6	1393241	ORIENT	n/a	n/a	n/a	-999	10	[0, 0, 0]	n/a	FR1	3	R1062J
1149.777	1.6	1395641	WORD	n/a	wordpools/wordpool_EN.txt	MOON	1	10	[0, 0, 0]	n/a	FR1	3	R1062J
1152.278	1.6	1398142	WORD	n/a	wordpools/wordpool_EN.txt	GRAPE	2	10	[0, 0, 0]	n/a	FR1	3	R1062J
1154.894	1.6	1400758	WORD	n/a	wordpools/wordpool_EN.txt	ICE	3	10	[0, 0, 0]	n/a	FR1	3	R1062J
1157.429	1.6	1403293	WORD	n/a	wordpools/wordpool_EN.txt	PLANE	4	10	[0, 0, 0]	n/a	FR1	3	R1062J
1159.912	1.6	1405776	WORD	n/a	wordpools/wordpool_EN.txt	JET	5	10	[0, 0, 0]	n/a	FR1	3	R1062J
1162.296	1.6	1408160	WORD	n/a	wordpools/wordpool_EN.txt	CAPE	6	10	[0, 0, 0]	n/a	FR1	3	R1062J
1164.895	1.6	1410759	WORD	n/a	wordpools/wordpool_EN.txt	SLUSH	7	10	[0, 0, 0]	n/a	FR1	3	R1062J
1167.447	1.6	1413311	WORD	n/a	wordpools/wordpool_EN.txt	ROCK	8	10	[0, 0, 0]	n/a	FR1	3	R1062J
1169.896	1.6	1415760	WORD	n/a	wordpools/wordpool_EN.txt	DOG	9	10	[0, 0, 0]	n/a	FR1	3	R1062J
1172.297	1.6	1418161	WORD	n/a	wordpools/wordpool_EN.txt	STAR	10	10	[0, 0, 0]	n/a	FR1	3	R1062J
1174.763	1.6	1420627	WORD	n/a	wordpools/wordpool_EN.txt	PRINCE	11	10	[0, 0, 0]	n/a	FR1	3	R1062J
1177.315	1.6	1423179	WORD	n/a	wordpools/wordpool_EN.txt	FISH	12	10	[0, 0, 0]	n/a	FR1	3	R1062J
1178.932	0.001	1424796	DISTRACT_START	n/a	n/a	n/a	-999	10	[0, 0, 0]	n/a	FR1	3	R1062J
1178.933	0.015	1424797	START	n/a	n/a	n/a	-999	10	[-999, -999, -999]	n/a	FR1	3	R1062J
1178.948	15.369	1424812	PROB	15.346	n/a	n/a	-999	10	[4, 9, 7]	22.0	FR1	3	R1062J
1194.317	11.856	1440181	PROB	11.856	n/a	n/a	-999	10	[4, 7, 7]	18.0	FR1	3	R1062J
1206.173	0.013	1452037	STOP	n/a	n/a	n/a	-999	10	[-999, -999, -999]	n/a	FR1	3	R1062J
1206.186	1.117	1452050	DISTRACT_END	n/a	n/a	n/a	-999	10	[0, 0, 0]	n/a	FR1	3	R1062J
1207.303	10.277	1453167	REC_START	n/a	n/a	n/a	-999	10	[0, 0, 0]	n/a	FR1	3	R1062J
1217.58	4.287	1463444	REC_WORD	10.277	n/a	MOTH	-999	10	[0, 0, 0]	n/a	FR1	3	R1062J
1221.867	1.668	1467731	REC_WORD_VV	14.564	n/a	<>	-999	10	[0, 0, 0]	n/a	FR1	3	R1062J
1223.535	13.778	1469399	REC_WORD	16.232	n/a	MOON	-999	10	[0, 0, 0]	n/a	FR1	3	R1062J
1237.313	8.812	1483177	REC_END	n/a	n/a	n/a	-999	10	[0, 0, 0]	n/a	FR1	3	R1062J
1246.125	0.0	1491989	TRIAL	n/a	n/a	n/a	-999	11	[0, 0, 0]	n/a	FR1	3	R1062J
1246.125	10.0	1491989	COUNTDOWN_START	n/a	n/a	n/a	-999	11	[0, 0, 0]	n/a	FR1	3	R1062J
1256.553	0.006	1502417	COUNTDOWN_END	n/a	n/a	n/a	-999	11	[0, 0, 0]	n/a	FR1	3	R1062J
1256.559	1.6	1502423	ORIENT	n/a	n/a	n/a	-999	11	[0, 0, 0]	n/a	FR1	3	R1062J
1259.043	1.6	1504907	WORD	n/a	wordpools/wordpool_EN.txt	NAIL	1	11	[0, 0, 0]	n/a	FR1	3	R1062J
1261.643	1.6	1507507	WORD	n/a	wordpools/wordpool_EN.txt	PIT	2	11	[0, 0, 0]	n/a	FR1	3	R1062J
1264.06	1.6	1509924	WORD	n/a	wordpools/wordpool_EN.txt	FOOT	3	11	[0, 0, 0]	n/a	FR1	3	R1062J
1266.594	1.6	1512458	WORD	n/a	wordpools/wordpool_EN.txt	FACE	4	11	[0, 0, 0]	n/a	FR1	3	R1062J
1269.195	1.6	1515059	WORD	n/a	wordpools/wordpool_EN.txt	HILL	5	11	[0, 0, 0]	n/a	FR1	3	R1062J
1271.677	1.6	1517541	WORD	n/a	wordpools/wordpool_EN.txt	STICK	6	11	[0, 0, 0]	n/a	FR1	3	R1062J
1274.229	1.6	1520093	WORD	n/a	wordpools/wordpool_EN.txt	SOCK	7	11	[0, 0, 0]	n/a	FR1	3	R1062J
1276.695	1.6	1522559	WORD	n/a	wordpools/wordpool_EN.txt	DRESS	8	11	[0, 0, 0]	n/a	FR1	3	R1062J
1279.279	1.6	1525143	WORD	n/a	wordpools/wordpool_EN.txt	CONE	9	11	[0, 0, 0]	n/a	FR1	3	R1062J
1281.895	1.6	1527759	WORD	n/a	wordpools/wordpool_EN.txt	FLAME	10	11	[0, 0, 0]	n/a	FR1	3	R1062J
1284.297	1.6	1530161	WORD	n/a	wordpools/wordpool_EN.txt	BAG	11	11	[0, 0, 0]	n/a	FR1	3	R1062J
1286.696	1.6	1532560	WORD	n/a	wordpools/wordpool_EN.txt	FUDGE	12	11	[0, 0, 0]	n/a	FR1	3	R1062J
1288.314	0.001	1534178	DISTRACT_START	n/a	n/a	n/a	-999	11	[0, 0, 0]	n/a	FR1	3	R1062J
1288.315	0.016	1534179	START	n/a	n/a	n/a	-999	11	[-999, -999, -999]	n/a	FR1	3	R1062J
1288.331	8.251	1534195	PROB	8.216	n/a	n/a	-999	11	[4, 2, 5]	11.0	FR1	3	R1062J
1296.582	15.036	1542446	PROB	15.036	n/a	n/a	-999	11	[8, 2, 6]	19.0	FR1	3	R1062J
1311.618	0.016	1557482	STOP	n/a	n/a	n/a	-999	11	[-999, -999, -999]	n/a	FR1	3	R1062J
1311.634	1.134	1557498	DISTRACT_END	n/a	n/a	n/a	-999	11	[0, 0, 0]	n/a	FR1	3	R1062J
1312.768	4.309	1558632	REC_START	n/a	n/a	n/a	-999	11	[0, 0, 0]	n/a	FR1	3	R1062J
1317.077	4.455	1562941	REC_WORD	4.309	n/a	MOON	-999	11	[0, 0, 0]	n/a	FR1	3	R1062J
1321.532	16.368	1567396	REC_WORD	8.764	n/a	NAIL	-999	11	[0, 0, 0]	n/a	FR1	3	R1062J
1337.9	1.527	1583764	REC_WORD	25.132	n/a	MOON	-999	11	[0, 0, 0]	n/a	FR1	3	R1062J
1339.427	3.35	1585291	REC_WORD	26.659	n/a	NAIL	-999	11	[0, 0, 0]	n/a	FR1	3	R1062J
1342.777	5.011	1588641	REC_END	n/a	n/a	n/a	-999	11	[0, 0, 0]	n/a	FR1	3	R1062J
1347.788	10.0	1593652	COUNTDOWN_START	n/a	n/a	n/a	-999	12	[0, 0, 0]	n/a	FR1	3	R1062J
1347.788	10.428	1593652	TRIAL	n/a	n/a	n/a	-999	12	[0, 0, 0]	n/a	FR1	3	R1062J
1358.216	0.008	1604080	COUNTDOWN_END	n/a	n/a	n/a	-999	12	[0, 0, 0]	n/a	FR1	3	R1062J
1358.224	1.6	1604088	ORIENT	n/a	n/a	n/a	-999	12	[0, 0, 0]	n/a	FR1	3	R1062J
1360.723	1.6	1606587	WORD	n/a	wordpools/wordpool_EN.txt	YARD	1	12	[0, 0, 0]	n/a	FR1	3	R1062J
1363.308	1.6	1609172	WORD	n/a	wordpools/wordpool_EN.txt	HOLE	2	12	[0, 0, 0]	n/a	FR1	3	R1062J
1365.857	1.6	1611721	WORD	n/a	wordpools/wordpool_EN.txt	BUSH	3	12	[0, 0, 0]	n/a	FR1	3	R1062J
1368.292	1.6	1614156	WORD	n/a	wordpools/wordpool_EN.txt	OWL	4	12	[0, 0, 0]	n/a	FR1	3	R1062J
1370.824	1.6	1616688	WORD	n/a	wordpools/wordpool_EN.txt	BRUSH	5	12	[0, 0, 0]	n/a	FR1	3	R1062J
1373.226	1.6	1619090	WORD	n/a	wordpools/wordpool_EN.txt	PIPE	6	12	[0, 0, 0]	n/a	FR1	3	R1062J
1375.643	1.6	1621507	WORD	n/a	wordpools/wordpool_EN.txt	CLIFF	7	12	[0, 0, 0]	n/a	FR1	3	R1062J
1378.077	1.6	1623941	WORD	n/a	wordpools/wordpool_EN.txt	MULE	8	12	[0, 0, 0]	n/a	FR1	3	R1062J
1380.627	1.6	1626491	WORD	n/a	wordpools/wordpool_EN.txt	SPEAR	9	12	[0, 0, 0]	n/a	FR1	3	R1062J
1383.077	1.6	1628941	WORD	n/a	wordpools/wordpool_EN.txt	BAND	10	12	[0, 0, 0]	n/a	FR1	3	R1062J
1385.677	1.6	1631541	WORD	n/a	wordpools/wordpool_EN.txt	FROG	11	12	[0, 0, 0]	n/a	FR1	3	R1062J
1388.178	1.6	1634042	WORD	n/a	wordpools/wordpool_EN.txt	ROOF	12	12	[0, 0, 0]	n/a	FR1	3	R1062J
1389.794	0.001	1635658	DISTRACT_START	n/a	n/a	n/a	-999	12	[0, 0, 0]	n/a	FR1	3	R1062J
1389.795	0.016	1635659	START	n/a	n/a	n/a	-999	12	[-999, -999, -999]	n/a	FR1	3	R1062J
1389.811	34.148	1635675	PROB	34.148	n/a	n/a	-999	12	[1, 7, 9]	18.0	FR1	3	R1062J
1423.959	0.007	1669823	STOP	n/a	n/a	n/a	-999	12	[-999, -999, -999]	n/a	FR1	3	R1062J
1423.966	1.118	1669830	DISTRACT_END	n/a	n/a	n/a	-999	12	[0, 0, 0]	n/a	FR1	3	R1062J
1425.084	17.869	1670948	REC_START	n/a	n/a	n/a	-999	12	[0, 0, 0]	n/a	FR1	3	R1062J
1442.953	3.674	1688817	REC_WORD	17.869	n/a	MOON	-999	12	[0, 0, 0]	n/a	FR1	3	R1062J
1446.627	3.424	1692491	REC_WORD	21.543	n/a	COUCH	-999	12	[0, 0, 0]	n/a	FR1	3	R1062J
1450.051	5.043	1695915	REC_WORD	24.967	n/a	COMB	-999	12	[0, 0, 0]	n/a	FR1	3	R1062J
1455.094	6.528	1700958	REC_END	n/a	n/a	n/a	-999	12	[0, 0, 0]	n/a	FR1	3	R1062J
1461.622	0.0	1707486	TRIAL	n/a	n/a	n/a	-999	13	[0, 0, 0]	n/a	FR1	3	R1062J
1461.622	10.0	1707486	COUNTDOWN_START	n/a	n/a	n/a	-999	13	[0, 0, 0]	n/a	FR1	3	R1062J
1472.05	0.007	1717914	COUNTDOWN_END	n/a	n/a	n/a	-999	13	[0, 0, 0]	n/a	FR1	3	R1062J
1472.057	1.6	1717921	ORIENT	n/a	n/a	n/a	-999	13	[0, 0, 0]	n/a	FR1	3	R1062J
1474.574	1.6	1720438	WORD	n/a	wordpools/wordpool_EN.txt	TOE	1	13	[0, 0, 0]	n/a	FR1	3	R1062J
1477.074	1.6	1722938	WORD	n/a	wordpools/wordpool_EN.txt	CHIN	2	13	[0, 0, 0]	n/a	FR1	3	R1062J
1479.608	1.6	1725472	WORD	n/a	wordpools/wordpool_EN.txt	WING	3	13	[0, 0, 0]	n/a	FR1	3	R1062J
1482.058	1.6	1727922	WORD	n/a	wordpools/wordpool_EN.txt	GLOVE	4	13	[0, 0, 0]	n/a	FR1	3	R1062J
1484.458	1.6	1730322	WORD	n/a	wordpools/wordpool_EN.txt	NOSE	5	13	[0, 0, 0]	n/a	FR1	3	R1062J
1486.858	1.6	1732722	WORD	n/a	wordpools/wordpool_EN.txt	CAT	6	13	[0, 0, 0]	n/a	FR1	3	R1062J
1489.442	1.6	1735306	WORD	n/a	wordpools/wordpool_EN.txt	FUR	7	13	[0, 0, 0]	n/a	FR1	3	R1062J
1491.875	1.6	1737739	WORD	n/a	wordpools/wordpool_EN.txt	OAR	8	13	[0, 0, 0]	n/a	FR1	3	R1062J
1494.293	1.6	1740157	WORD	n/a	wordpools/wordpool_EN.txt	TREE	9	13	[0, 0, 0]	n/a	FR1	3	R1062J
1496.759	1.6	1742623	WORD	n/a	wordpools/wordpool_EN.txt	SHIELD	10	13	[0, 0, 0]	n/a	FR1	3	R1062J
1499.277	1.6	1745141	WORD	n/a	wordpools/wordpool_EN.txt	ROPE	11	13	[0, 0, 0]	n/a	FR1	3	R1062J
1501.66	1.6	1747524	WORD	n/a	wordpools/wordpool_EN.txt	BLOOM	12	13	[0, 0, 0]	n/a	FR1	3	R1062J
1503.278	0.001	1749142	DISTRACT_START	n/a	n/a	n/a	-999	13	[0, 0, 0]	n/a	FR1	3	R1062J
1503.279	0.015	1749143	START	n/a	n/a	n/a	-999	13	[-999, -999, -999]	n/a	FR1	3	R1062J
1503.294	7.718	1749158	PROB	7.695	n/a	n/a	-999	13	[3, 2, 9]	14.0	FR1	3	R1062J
1511.012	11.618	1756876	PROB	11.593	n/a	n/a	-999	13	[3, 7, 4]	14.0	FR1	3	R1062J
1522.63	11.382	1768494	PROB	11.382	n/a	n/a	-999	13	[8, 9, 2]	19.0	FR1	3	R1062J
1534.012	0.003	1779876	STOP	n/a	n/a	n/a	-999	13	[-999, -999, -999]	n/a	FR1	3	R1062J
1534.015	1.068	1779879	DISTRACT_END	n/a	n/a	n/a	-999	13	[0, 0, 0]	n/a	FR1	3	R1062J
1535.083	30.0	1780947	REC_START	n/a	n/a	n/a	-999	13	[0, 0, 0]	n/a	FR1	3	R1062J
1565.083	0.009	1810947	REC_WORD_VV	30.0	n/a	<>	-999	13	[0, 0, 0]	n/a	FR1	3	R1062J
1565.092	28.564	1810956	REC_END	n/a	n/a	n/a	-999	13	[0, 0, 0]	n/a	FR1	3	R1062J
1593.656	0.0	1839520	TRIAL	n/a	n/a	n/a	-999	14	[0, 0, 0]	n/a	FR1	3	R1062J
1593.656	10.0	1839520	COUNTDOWN_START	n/a	n/a	n/a	-999	14	[0, 0, 0]	n/a	FR1	3	R1062J
1604.084	0.008	1849948	COUNTDOWN_END	n/a	n/a	n/a	-999	14	[0, 0, 0]	n/a	FR1	3	R1062J
1604.092	1.6	1849956	ORIENT	n/a	n/a	n/a	-999	14	[0, 0, 0]	n/a	FR1	3	R1062J
1606.542	1.6	1852406	WORD	n/a	wordpools/wordpool_EN.txt	JUICE	1	14	[0, 0, 0]	n/a	FR1	3	R1062J
1609.143	1.6	1855007	WORD	n/a	wordpools/wordpool_EN.txt	CORN	2	14	[0, 0, 0]	n/a	FR1	3	R1062J
1611.692	1.6	1857556	WORD	n/a	wordpools/wordpool_EN.txt	CAGE	3	14	[0, 0, 0]	n/a	FR1	3	R1062J
1614.193	1.6	1860057	WORD	n/a	wordpools/wordpool_EN.txt	MUG	4	14	[0, 0, 0]	n/a	FR1	3	R1062J
1616.776	1.6	1862640	WORD	n/a	wordpools/wordpool_EN.txt	HORSE	5	14	[0, 0, 0]	n/a	FR1	3	R1062J
1619.161	1.6	1865025	WORD	n/a	wordpools/wordpool_EN.txt	ARM	6	14	[0, 0, 0]	n/a	FR1	3	R1062J
1621.561	1.6	1867425	WORD	n/a	wordpools/wordpool_EN.txt	STEAK	7	14	[0, 0, 0]	n/a	FR1	3	R1062J
1623.995	1.6	1869859	WORD	n/a	wordpools/wordpool_EN.txt	TOAST	8	14	[0, 0, 0]	n/a	FR1	3	R1062J
1626.512	1.6	1872376	WORD	n/a	wordpools/wordpool_EN.txt	CAVE	9	14	[0, 0, 0]	n/a	FR1	3	R1062J
1628.929	1.6	1874793	WORD	n/a	wordpools/wordpool_EN.txt	GLASS	10	14	[0, 0, 0]	n/a	FR1	3	R1062J
1631.479	1.6	1877343	WORD	n/a	wordpools/wordpool_EN.txt	HOOF	11	14	[0, 0, 0]	n/a	FR1	3	R1062J
1634.096	1.6	1879960	WORD	n/a	wordpools/wordpool_EN.txt	PLATE	12	14	[0, 0, 0]	n/a	FR1	3	R1062J
1635.712	0.001	1881576	DISTRACT_START	n/a	n/a	n/a	-999	14	[0, 0, 0]	n/a	FR1	3	R1062J
1635.713	0.016	1881577	START	n/a	n/a	n/a	-999	14	[-999, -999, -999]	n/a	FR1	3	R1062J
1635.729	35.4	1881593	PROB	35.4	n/a	n/a	-999	14	[9, 4, 7]	20.0	FR1	3	R1062J
1671.129	0.006	1916993	STOP	n/a	n/a	n/a	-999	14	[-999, -999, -999]	n/a	FR1	3	R1062J
1671.135	1.034	1916999	DISTRACT_END	n/a	n/a	n/a	-999	14	[0, 0, 0]	n/a	FR1	3	R1062J
1672.169	0.663	1918033	REC_START	n/a	n/a	n/a	-999	14	[0, 0, 0]	n/a	FR1	3	R1062J
1672.832	2.417	1918696	REC_WORD	0.663	n/a	STEAK	-999	14	[0, 0, 0]	n/a	FR1	3	R1062J
1675.249	13.849	1921113	REC_WORD	3.08	n/a	HORSE	-999	14	[0, 0, 0]	n/a	FR1	3	R1062J
1689.098	13.08	1934962	REC_WORD	16.929	n/a	COW	-999	14	[0, 0, 0]	n/a	FR1	3	R1062J
1702.178	13.296	1948042	REC_END	n/a	n/a	n/a	-999	14	[0, 0, 0]	n/a	FR1	3	R1062J
1715.474	10.0	1961338	COUNTDOWN_START	n/a	n/a	n/a	-999	15	[0, 0, 0]	n/a	FR1	3	R1062J
1715.475	10.427	1961339	TRIAL	n/a	n/a	n/a	-999	15	[0, 0, 0]	n/a	FR1	3	R1062J
1725.902	0.006	1971766	COUNTDOWN_END	n/a	n/a	n/a	-999	15	[0, 0, 0]	n/a	FR1	3	R1062J
1725.908	1.6	1971772	ORIENT	n/a	n/a	n/a	-999	15	[0, 0, 0]	n/a	FR1	3	R1062J
1728.343	1.6	1974207	WORD	n/a	wordpools/wordpool_EN.txt	LAMB	1	15	[0, 0, 0]	n/a	FR1	3	R1062J
1730.742	1.6	1976606	WORD	n/a	wordpools/wordpool_EN.txt	DEER	2	15	[0, 0, 0]	n/a	FR1	3	R1062J
1733.277	1.6	1979141	WORD	n/a	wordpools/wordpool_EN.txt	WAND	3	15	[0, 0, 0]	n/a	FR1	3	R1062J
1735.793	1.6	1981657	WORD	n/a	wordpools/wordpool_EN.txt	WOLF	4	15	[0, 0, 0]	n/a	FR1	3	R1062J
1738.211	1.6	1984075	WORD	n/a	wordpools/wordpool_EN.txt	RAKE	5	15	[0, 0, 0]	n/a	FR1	3	R1062J
1740.677	1.6	1986541	WORD	n/a	wordpools/wordpool_EN.txt	SNOW	6	15	[0, 0, 0]	n/a	FR1	3	R1062J
1743.245	1.6	1989109	WORD	n/a	wordpools/wordpool_EN.txt	ROAD	7	15	[0, 0, 0]	n/a	FR1	3	R1062J
1745.844	1.6	1991708	WORD	n/a	wordpools/wordpool_EN.txt	STONE	8	15	[0, 0, 0]	n/a	FR1	3	R1062J
1748.279	1.6	1994143	WORD	n/a	wordpools/wordpool_EN.txt	FORK	9	15	[0, 0, 0]	n/a	FR1	3	R1062J
1750.762	1.6	1996626	WORD	n/a	wordpools/wordpool_EN.txt	CRANE	10	15	[0, 0, 0]	n/a	FR1	3	R1062J
1753.263	1.6	1999127	WORD	n/a	wordpools/wordpool_EN.txt	BEAR	11	15	[0, 0, 0]	n/a	FR1	3	R1062J
1755.662	1.6	2001526	WORD	n/a	wordpools/wordpool_EN.txt	MOLE	12	15	[0, 0, 0]	n/a	FR1	3	R1062J
1757.263	0.001	2003127	DISTRACT_START	n/a	n/a	n/a	-999	15	[0, 0, 0]	n/a	FR1	3	R1062J
1757.264	0.016	2003128	START	n/a	n/a	n/a	-999	15	[-999, -999, -999]	n/a	FR1	3	R1062J
1757.28	13.518	2003144	PROB	13.493	n/a	n/a	-999	15	[6, 8, 4]	18.0	FR1	3	R1062J
1770.798	21.887	2016662	PROB	21.887	n/a	n/a	-999	15	[6, 4, 4]	14.0	FR1	3	R1062J
1792.685	0.016	2038549	STOP	n/a	n/a	n/a	-999	15	[-999, -999, -999]	n/a	FR1	3	R1062J
1792.701	1.035	2038565	DISTRACT_END	n/a	n/a	n/a	-999	15	[0, 0, 0]	n/a	FR1	3	R1062J
1793.736	4.933	2039600	REC_START	n/a	n/a	n/a	-999	15	[0, 0, 0]	n/a	FR1	3	R1062J
1798.669	4.636	2044533	REC_WORD	4.933	n/a	DEER	-999	15	[0, 0, 0]	n/a	FR1	3	R1062J
1803.305	20.44	2049169	REC_WORD	9.569	n/a	GOAT	-999	15	[0, 0, 0]	n/a	FR1	3	R1062J
1823.745	3.994	2069609	REC_END	n/a	n/a	n/a	-999	15	[0, 0, 0]	n/a	FR1	3	R1062J
1827.739	10.0	2073603	COUNTDOWN_START	n/a	n/a	n/a	-999	16	[0, 0, 0]	n/a	FR1	3	R1062J
1827.74	10.427	2073604	TRIAL	n/a	n/a	n/a	-999	16	[0, 0, 0]	n/a	FR1	3	R1062J
1838.167	0.008	2084031	COUNTDOWN_END	n/a	n/a	n/a	-999	16	[0, 0, 0]	n/a	FR1	3	R1062J
1838.175	1.6	2084039	ORIENT	n/a	n/a	n/a	-999	16	[0, 0, 0]	n/a	FR1	3	R1062J
1840.774	1.6	2086638	WORD	n/a	wordpools/wordpool_EN.txt	BOMB	1	16	[0, 0, 0]	n/a	FR1	3	R1062J
1843.159	1.6	2089023	WORD	n/a	wordpools/wordpool_EN.txt	FORT	2	16	[0, 0, 0]	n/a	FR1	3	R1062J
1845.576	1.6	2091440	WORD	n/a	wordpools/wordpool_EN.txt	STEAM	3	16	[0, 0, 0]	n/a	FR1	3	R1062J
1847.977	1.6	2093841	WORD	n/a	wordpools/wordpool_EN.txt	DRUM	4	16	[0, 0, 0]	n/a	FR1	3	R1062J
1850.393	1.6	2096257	WORD	n/a	wordpools/wordpool_EN.txt	BARN	5	16	[0, 0, 0]	n/a	FR1	3	R1062J
1852.809	1.6	2098673	WORD	n/a	wordpools/wordpool_EN.txt	TRASH	6	16	[0, 0, 0]	n/a	FR1	3	R1062J
1855.328	1.6	2101192	WORD	n/a	wordpools/wordpool_EN.txt	FLUTE	7	16	[0, 0, 0]	n/a	FR1	3	R1062J
1857.76	1.6	2103624	WORD	n/a	wordpools/wordpool_EN.txt	WHEEL	8	16	[0, 0, 0]	n/a	FR1	3	R1062J
1860.195	1.6	2106059	WORD	n/a	wordpools/wordpool_EN.txt	RAIN	9	16	[0, 0, 0]	n/a	FR1	3	R1062J
1862.778	1.6	2108642	WORD	n/a	wordpools/wordpool_EN.txt	BRIDGE	10	16	[0, 0, 0]	n/a	FR1	3	R1062J
1865.229	1.6	2111093	WORD	n/a	wordpools/wordpool_EN.txt	LAND	11	16	[0, 0, 0]	n/a	FR1	3	R1062J
1867.845	1.6	2113709	WORD	n/a	wordpools/wordpool_EN.txt	FOG	12	16	[0, 0, 0]	n/a	FR1	3	R1062J
1869.446	0.001	2115310	DISTRACT_START	n/a	n/a	n/a	-999	16	[0, 0, 0]	n/a	FR1	3	R1062J
1869.447	0.016	2115311	START	n/a	n/a	n/a	-999	16	[-999, -999, -999]	n/a	FR1	3	R1062J
1869.463	16.769	2115327	PROB	16.74	n/a	n/a	-999	16	[2, 5, 6]	13.0	FR1	3	R1062J
1886.232	14.97	2132096	PROB	14.97	n/a	n/a	-999	16	[4, 6, 3]	13.0	FR1	3	R1062J
1901.202	0.015	2147066	STOP	n/a	n/a	n/a	-999	16	[-999, -999, -999]	n/a	FR1	3	R1062J
1901.217	1.101	2147081	DISTRACT_END	n/a	n/a	n/a	-999	16	[0, 0, 0]	n/a	FR1	3	R1062J
1902.318	3.086	2148182	REC_START	n/a	n/a	n/a	-999	16	[0, 0, 0]	n/a	FR1	3	R1062J
1905.404	26.924	2151268	REC_WORD	3.086	n/a	BOMB	-999	16	[0, 0, 0]	n/a	FR1	3	R1062J
1932.328	5.145	2178192	REC_END	n/a	n/a	n/a	-999	16	[0, 0, 0]	n/a	FR1	3	R1062J
1937.473	10.0	2183337	COUNTDOWN_START	n/a	n/a	n/a	-999	17	[0, 0, 0]	n/a	FR1	3	R1062J
1937.473	10.428	2183337	TRIAL	n/a	n/a	n/a	-999	17	[0, 0, 0]	n/a	FR1	3	R1062J
1947.901	0.005	2193765	COUNTDOWN_END	n/a	n/a	n/a	-999	17	[0, 0, 0]	n/a	FR1	3	R1062J
1947.906	1.6	2193770	ORIENT	n/a	n/a	n/a	-999	17	[0, 0, 0]	n/a	FR1	3	R1062J
1950.324	1.6	2196188	WORD	n/a	wordpools/wordpool_EN.txt	BAT	1	17	[0, 0, 0]	n/a	FR1	3	R1062J
1952.74	1.6	2198604	WORD	n/a	wordpools/wordpool_EN.txt	FLEA	2	17	[0, 0, 0]	n/a	FR1	3	R1062J
1955.125	1.6	2200989	WORD	n/a	wordpools/wordpool_EN.txt	NEST	3	17	[0, 0, 0]	n/a	FR1	3	R1062J
1957.741	1.6	2203605	WORD	n/a	wordpools/wordpool_EN.txt	WHALE	4	17	[0, 0, 0]	n/a	FR1	3	R1062J
1960.226	1.6	2206090	WORD	n/a	wordpools/wordpool_EN.txt	HORN	5	17	[0, 0, 0]	n/a	FR1	3	R1062J
1962.675	1.6	2208539	WORD	n/a	wordpools/wordpool_EN.txt	PIG	6	17	[0, 0, 0]	n/a	FR1	3	R1062J
1965.193	1.6	2211057	WORD	n/a	wordpools/wordpool_EN.txt	ANT	7	17	[0, 0, 0]	n/a	FR1	3	R1062J
1967.809	1.6	2213673	WORD	n/a	wordpools/wordpool_EN.txt	SNAIL	8	17	[0, 0, 0]	n/a	FR1	3	R1062J
1970.344	1.6	2216208	WORD	n/a	wordpools/wordpool_EN.txt	TAIL	9	17	[0, 0, 0]	n/a	FR1	3	R1062J
1972.944	1.6	2218808	WORD	n/a	wordpools/wordpool_EN.txt	WORM	10	17	[0, 0, 0]	n/a	FR1	3	R1062J
1975.528	1.6	2221392	WORD	n/a	wordpools/wordpool_EN.txt	BALL	11	17	[0, 0, 0]	n/a	FR1	3	R1062J
1978.145	1.6	2224009	WORD	n/a	wordpools/wordpool_EN.txt	BEE	12	17	[0, 0, 0]	n/a	FR1	3	R1062J
1979.761	0.001	2225625	DISTRACT_START	n/a	n/a	n/a	-999	17	[0, 0, 0]	n/a	FR1	3	R1062J
1979.762	0.016	2225626	START	n/a	n/a	n/a	-999	17	[-999, -999, -999]	n/a	FR1	3	R1062J
1979.778	6.501	2225642	PROB	6.471	n/a	n/a	-999	17	[4, 4, 2]	10.0	FR1	3	R1062J
1986.279	12.936	2232143	PROB	12.913	n/a	n/a	-999	17	[9, 3, 9]	21.0	FR1	3	R1062J
1999.215	14.032	2245079	PROB	14.032	n/a	n/a	-999	17	[1, 8, 5]	14.0	FR1	3	R1062J
2013.247	0.02	2259111	STOP	n/a	n/a	n/a	-999	17	[-999, -999, -999]	n/a	FR1	3	R1062J
2013.267	1.117	2259131	DISTRACT_END	n/a	n/a	n/a	-999	17	[0, 0, 0]	n/a	FR1	3	R1062J
2014.384	4.963	2260248	REC_START	n/a	n/a	n/a	-999	17	[0, 0, 0]	n/a	FR1	3	R1062J
2019.347	3.218	2265211	REC_WORD	4.963	n/a	BAT	-999	17	[0, 0, 0]	n/a	FR1	3	R1062J
2022.565	21.829	2268429	REC_WORD	8.181	n/a	BOMB	-999	17	[0, 0, 0]	n/a	FR1	3	R1062J
2044.394	4.978	2290258	REC_END	n/a	n/a	n/a	-999	17	[0, 0, 0]	n/a	FR1	3	R1062J
2049.372	0.0	2295236	TRIAL	n/a	n/a	n/a	-999	18	[0, 0, 0]	n/a	FR1	3	R1062J
2049.372	10.0	2295236	COUNTDOWN_START	n/a	n/a	n/a	-999	18	[0, 0, 0]	n/a	FR1	3	R1062J
2059.8	0.006	2305664	COUNTDOWN_END	n/a	n/a	n/a	-999	18	[0, 0, 0]	n/a	FR1	3	R1062J
2059.806	1.6	2305670	ORIENT	n/a	n/a	n/a	-999	18	[0, 0, 0]	n/a	FR1	3	R1062J
2062.24	1.6	2308104	WORD	n/a	wordpools/wordpool_EN.txt	TENT	1	18	[0, 0, 0]	n/a	FR1	3	R1062J
2064.689	1.6	2310553	WORD	n/a	wordpools/wordpool_EN.txt	GUARD	2	18	[0, 0, 0]	n/a	FR1	3	R1062J
2067.108	1.6	2312972	WORD	n/a	wordpools/wordpool_EN.txt	JEEP	3	18	[0, 0, 0]	n/a	FR1	3	R1062J
2069.641	1.6	2315505	WORD	n/a	wordpools/wordpool_EN.txt	ARK	4	18	[0, 0, 0]	n/a	FR1	3	R1062J
2072.091	1.6	2317955	WORD	n/a	wordpools/wordpool_EN.txt	LIP	5	18	[0, 0, 0]	n/a	FR1	3	R1062J
2074.509	1.6	2320373	WORD	n/a	wordpools/wordpool_EN.txt	PEN	6	18	[0, 0, 0]	n/a	FR1	3	R1062J
2077.076	1.6	2322940	WORD	n/a	wordpools/wordpool_EN.txt	CHEEK	7	18	[0, 0, 0]	n/a	FR1	3	R1062J
2079.526	1.6	2325390	WORD	n/a	wordpools/wordpool_EN.txt	BADGE	8	18	[0, 0, 0]	n/a	FR1	3	R1062J
2081.976	1.6	2327840	WORD	n/a	wordpools/wordpool_EN.txt	HAT	9	18	[0, 0, 0]	n/a	FR1	3	R1062J
2084.526	1.6	2330390	WORD	n/a	wordpools/wordpool_EN.txt	MUD	10	18	[0, 0, 0]	n/a	FR1	3	R1062J
2087.01	1.6	2332874	WORD	n/a	wordpools/wordpool_EN.txt	GEESE	11	18	[0, 0, 0]	n/a	FR1	3	R1062J
2089.628	1.6	2335492	WORD	n/a	wordpools/wordpool_EN.txt	HAND	12	18	[0, 0, 0]	n/a	FR1	3	R1062J
2091.244	0.001	2337108	DISTRACT_START	n/a	n/a	n/a	-999	18	[0, 0, 0]	n/a	FR1	3	R1062J
2091.245	0.016	2337109	START	n/a	n/a	n/a	-999	18	[-999, -999, -999]	n/a	FR1	3	R1062J
2091.261	8.968	2337125	PROB	8.936	n/a	n/a	-999	18	[6, 1, 5]	12.0	FR1	3	R1062J
2100.229	15.423	2346093	PROB	15.423	n/a	n/a	-999	18	[8, 8, 6]	22.0	FR1	3	R1062J
2115.652	0.011	2361516	STOP	n/a	n/a	n/a	-999	18	[-999, -999, -999]	n/a	FR1	3	R1062J
2115.663	1.201	2361527	DISTRACT_END	n/a	n/a	n/a	-999	18	[0, 0, 0]	n/a	FR1	3	R1062J
2116.864	6.605	2362728	REC_START	n/a	n/a	n/a	-999	18	[0, 0, 0]	n/a	FR1	3	R1062J
2123.469	5.212	2369333	REC_WORD	6.605	n/a	GEESE	-999	18	[0, 0, 0]	n/a	FR1	3	R1062J
2128.681	1.601	2374545	REC_WORD	11.817	n/a	BACK	-999	18	[0, 0, 0]	n/a	FR1	3	R1062J
2130.282	1.587	2376146	REC_WORD	13.418	n/a	BAT	-999	18	[0, 0, 0]	n/a	FR1	3	R1062J
2131.869	15.005	2377733	REC_WORD	15.005	n/a	GUARD	-999	18	[0, 0, 0]	n/a	FR1	3	R1062J
2146.874	3.562	2392738	REC_END	n/a	n/a	n/a	-999	18	[0, 0, 0]	n/a	FR1	3	R1062J
2150.436	10.0	2396300	COUNTDOWN_START	n/a	n/a	n/a	-999	19	[0, 0, 0]	n/a	FR1	3	R1062J
2150.436	10.428	2396300	TRIAL	n/a	n/a	n/a	-999	19	[0, 0, 0]	n/a	FR1	3	R1062J
2160.864	0.006	2406728	COUNTDOWN_END	n/a	n/a	n/a	-999	19	[0, 0, 0]	n/a	FR1	3	R1062J
2160.87	1.6	2406734	ORIENT	n/a	n/a	n/a	-999	19	[0, 0, 0]	n/a	FR1	3	R1062J
2163.438	1.6	2409302	WORD	n/a	wordpools/wordpool_EN.txt	VINE	1	19	[0, 0, 0]	n/a	FR1	3	R1062J
2166.038	1.6	2411902	WORD	n/a	wordpools/wordpool_EN.txt	EAR	2	19	[0, 0, 0]	n/a	FR1	3	R1062J
2168.439	1.6	2414303	WORD	n/a	wordpools/wordpool_EN.txt	FOOD	3	19	[0, 0, 0]	n/a	FR1	3	R1062J
2171.056	1.6	2416920	WORD	n/a	wordpools/wordpool_EN.txt	HEART	4	19	[0, 0, 0]	n/a	FR1	3	R1062J
2173.506	1.6	2419370	WORD	n/a	wordpools/wordpool_EN.txt	BED	5	19	[0, 0, 0]	n/a	FR1	3	R1062J
2175.99	1.6	2421854	WORD	n/a	wordpools/wordpool_EN.txt	HOSE	6	19	[0, 0, 0]	n/a	FR1	3	R1062J
2178.557	1.6	2424421	WORD	n/a	wordpools/wordpool_EN.txt	TRAIN	7	19	[0, 0, 0]	n/a	FR1	3	R1062J
2181.107	1.6	2426971	WORD	n/a	wordpools/wordpool_EN.txt	MOUSE	8	19	[0, 0, 0]	n/a	FR1	3	R1062J
2183.524	1.6	2429388	WORD	n/a	wordpools/wordpool_EN.txt	SMOKE	9	19	[0, 0, 0]	n/a	FR1	3	R1062J
2186.091	1.6	2431955	WORD	n/a	wordpools/wordpool_EN.txt	ROOM	10	19	[0, 0, 0]	n/a	FR1	3	R1062J
2188.642	1.6	2434506	WORD	n/a	wordpools/wordpool_EN.txt	MOOSE	11	19	[0, 0, 0]	n/a	FR1	3	R1062J
2191.142	1.6	2437006	WORD	n/a	wordpools/wordpool_EN.txt	CAKE	12	19	[0, 0, 0]	n/a	FR1	3	R1062J
2192.758	0.001	2438622	DISTRACT_START	n/a	n/a	n/a	-999	19	[0, 0, 0]	n/a	FR1	3	R1062J
2192.759	0.015	2438623	START	n/a	n/a	n/a	-999	19	[-999, -999, -999]	n/a	FR1	3	R1062J
2192.774	32.668	2438638	PROB	32.668	n/a	n/a	-999	19	[8, 5, 7]	17.0	FR1	3	R1062J
2225.442	0.005	2471306	STOP	n/a	n/a	n/a	-999	19	[-999, -999, -999]	n/a	FR1	3	R1062J
2225.447	1.151	2471311	DISTRACT_END	n/a	n/a	n/a	-999	19	[0, 0, 0]	n/a	FR1	3	R1062J
2226.598	7.528	2472462	REC_START	n/a	n/a	n/a	-999	19	[0, 0, 0]	n/a	FR1	3	R1062J
2234.126	7.211	2479990	REC_WORD	7.528	n/a	MOOSE	-999	19	[0, 0, 0]	n/a	FR1	3	R1062J
2241.337	15.271	2487201	REC_WORD	14.739	n/a	MOUSE	-999	19	[0, 0, 0]	n/a	FR1	3	R1062J
2256.608	20.563	2502472	REC_END	n/a	n/a	n/a	-999	19	[0, 0, 0]	n/a	FR1	3	R1062J
2277.171	0.0	2523035	TRIAL	n/a	n/a	n/a	-999	20	[0, 0, 0]	n/a	FR1	3	R1062J
2277.171	10.0	2523035	COUNTDOWN_START	n/a	n/a	n/a	-999	20	[0, 0, 0]	n/a	FR1	3	R1062J
2287.599	0.007	2533463	COUNTDOWN_END	n/a	n/a	n/a	-999	20	[0, 0, 0]	n/a	FR1	3	R1062J
2287.606	1.6	2533470	ORIENT	n/a	n/a	n/a	-999	20	[0, 0, 0]	n/a	FR1	3	R1062J
2290.006	1.6	2535870	WORD	n/a	wordpools/wordpool_EN.txt	RICE	1	20	[0, 0, 0]	n/a	FR1	3	R1062J
2292.523	1.6	2538387	WORD	n/a	wordpools/wordpool_EN.txt	EGG	2	20	[0, 0, 0]	n/a	FR1	3	R1062J
2295.123	1.6	2540987	WORD	n/a	wordpools/wordpool_EN.txt	CORD	3	20	[0, 0, 0]	n/a	FR1	3	R1062J
2297.557	1.6	2543421	WORD	n/a	wordpools/wordpool_EN.txt	NET	4	20	[0, 0, 0]	n/a	FR1	3	R1062J
2299.957	1.6	2545821	WORD	n/a	wordpools/wordpool_EN.txt	WAVE	5	20	[0, 0, 0]	n/a	FR1	3	R1062J
2302.358	1.6	2548222	WORD	n/a	wordpools/wordpool_EN.txt	POLE	6	20	[0, 0, 0]	n/a	FR1	3	R1062J
2304.774	1.6	2550638	WORD	n/a	wordpools/wordpool_EN.txt	PEA	7	20	[0, 0, 0]	n/a	FR1	3	R1062J
2307.408	1.6	2553272	WORD	n/a	wordpools/wordpool_EN.txt	TOAD	8	20	[0, 0, 0]	n/a	FR1	3	R1062J
2309.874	1.6	2555738	WORD	n/a	wordpools/wordpool_EN.txt	SHEET	9	20	[0, 0, 0]	n/a	FR1	3	R1062J
2312.309	1.6	2558173	WORD	n/a	wordpools/wordpool_EN.txt	CASH	10	20	[0, 0, 0]	n/a	FR1	3	R1062J
2314.892	1.6	2560756	WORD	n/a	wordpools/wordpool_EN.txt	HEN	11	20	[0, 0, 0]	n/a	FR1	3	R1062J
2317.343	1.6	2563207	WORD	n/a	wordpools/wordpool_EN.txt	COIN	12	20	[0, 0, 0]	n/a	FR1	3	R1062J
2318.96	0.001	2564824	DISTRACT_START	n/a	n/a	n/a	-999	20	[0, 0, 0]	n/a	FR1	3	R1062J
2318.961	0.016	2564825	START	n/a	n/a	n/a	-999	20	[-999, -999, -999]	n/a	FR1	3	R1062J
2318.977	12.085	2564841	PROB	12.054	n/a	n/a	-999	20	[1, 6, 7]	14.0	FR1	3	R1062J
2331.062	34.639	2576926	PROB	34.639	n/a	n/a	-999	20	[5, 9, 6]	19.0	FR1	3	R1062J
2365.701	0.014	2611565	STOP	n/a	n/a	n/a	-999	20	[-999, -999, -999]	n/a	FR1	3	R1062J
2365.715	1.22	2611579	DISTRACT_END	n/a	n/a	n/a	-999	20	[0, 0, 0]	n/a	FR1	3	R1062J
2366.935	30.0	2612799	REC_START	n/a	n/a	n/a	-999	20	[0, 0, 0]	n/a	FR1	3	R1062J
2396.935	0.009	2642799	REC_WORD_VV	30.0	n/a	<>	-999	20	[0, 0, 0]	n/a	FR1	3	R1062J
2396.944	9.612	2642808	REC_END	n/a	n/a	n/a	-999	20	[0, 0, 0]	n/a	FR1	3	R1062J
2406.556	0.0	2652420	TRIAL	n/a	n/a	n/a	-999	21	[0, 0, 0]	n/a	FR1	3	R1062J
2406.556	10.0	2652420	COUNTDOWN_START	n/a	n/a	n/a	-999	21	[0, 0, 0]	n/a	FR1	3	R1062J
2416.984	0.007	2662848	COUNTDOWN_END	n/a	n/a	n/a	-999	21	[0, 0, 0]	n/a	FR1	3	R1062J
2416.991	1.6	2662855	ORIENT	n/a	n/a	n/a	-999	21	[0, 0, 0]	n/a	FR1	3	R1062J
2419.558	1.6	2665422	WORD	n/a	wordpools/wordpool_EN.txt	BRICK	1	21	[0, 0, 0]	n/a	FR1	3	R1062J
2422.108	1.6	2667972	WORD	n/a	wordpools/wordpool_EN.txt	MAIL	2	21	[0, 0, 0]	n/a	FR1	3	R1062J
2424.657	1.6	2670521	WORD	n/a	wordpools/wordpool_EN.txt	FILM	3	21	[0, 0, 0]	n/a	FR1	3	R1062J
2427.075	1.6	2672939	WORD	n/a	wordpools/wordpool_EN.txt	JUDGE	4	21	[0, 0, 0]	n/a	FR1	3	R1062J
2429.459	1.6	2675323	WORD	n/a	wordpools/wordpool_EN.txt	DOOR	5	21	[0, 0, 0]	n/a	FR1	3	R1062J
2431.926	1.6	2677790	WORD	n/a	wordpools/wordpool_EN.txt	CAR	6	21	[0, 0, 0]	n/a	FR1	3	R1062J
2434.343	1.6	2680207	WORD	n/a	wordpools/wordpool_EN.txt	BOOK	7	21	[0, 0, 0]	n/a	FR1	3	R1062J
2436.726	1.6	2682590	WORD	n/a	wordpools/wordpool_EN.txt	KITE	8	21	[0, 0, 0]	n/a	FR1	3	R1062J
2439.244	1.6	2685108	WORD	n/a	wordpools/wordpool_EN.txt	INK	9	21	[0, 0, 0]	n/a	FR1	3	R1062J
2441.776	1.6	2687640	WORD	n/a	wordpools/wordpool_EN.txt	SKI	10	21	[0, 0, 0]	n/a	FR1	3	R1062J
2444.144	1.6	2690008	WORD	n/a	wordpools/wordpool_EN.txt	BANK	11	21	[0, 0, 0]	n/a	FR1	3	R1062J
2446.677	1.6	2692541	WORD	n/a	wordpools/wordpool_EN.txt	JAIL	12	21	[0, 0, 0]	n/a	FR1	3	R1062J
2448.278	0.001	2694142	DISTRACT_START	n/a	n/a	n/a	-999	21	[0, 0, 0]	n/a	FR1	3	R1062J
2448.279	0.016	2694143	START	n/a	n/a	n/a	-999	21	[-999, -999, -999]	n/a	FR1	3	R1062J
2448.295	19.636	2694159	PROB	19.611	n/a	n/a	-999	21	[2, 5, 7]	14.0	FR1	3	R1062J
2467.931	11.096	2713795	PROB	11.096	n/a	n/a	-999	21	[9, 3, 1]	13.0	FR1	3	R1062J
2479.027	0.006	2724891	STOP	n/a	n/a	n/a	-999	21	[-999, -999, -999]	n/a	FR1	3	R1062J
2479.033	1.15	2724897	DISTRACT_END	n/a	n/a	n/a	-999	21	[0, 0, 0]	n/a	FR1	3	R1062J
2480.183	5.487	2726047	REC_START	n/a	n/a	n/a	-999	21	[0, 0, 0]	n/a	FR1	3	R1062J
2485.67	2.632	2731534	REC_WORD	5.487	n/a	BRICK	-999	21	[0, 0, 0]	n/a	FR1	3	R1062J
2488.302	11.31	2734166	REC_WORD	8.119	n/a	WALL	-999	21	[0, 0, 0]	n/a	FR1	3	R1062J
2499.612	10.581	2745476	REC_WORD	19.429	n/a	CASH	-999	21	[0, 0, 0]	n/a	FR1	3	R1062J
2510.193	3.428	2756057	REC_END	n/a	n/a	n/a	-999	21	[0, 0, 0]	n/a	FR1	3	R1062J
2513.621	0.0	2759485	TRIAL	n/a	n/a	n/a	-999	22	[0, 0, 0]	n/a	FR1	3	R1062J
2513.621	10.0	2759485	COUNTDOWN_START	n/a	n/a	n/a	-999	22	[0, 0, 0]	n/a	FR1	3	R1062J
2524.049	0.007	2769913	COUNTDOWN_END	n/a	n/a	n/a	-999	22	[0, 0, 0]	n/a	FR1	3	R1062J
2524.056	1.6	2769920	ORIENT	n/a	n/a	n/a	-999	22	[0, 0, 0]	n/a	FR1	3	R1062J
2526.573	1.6	2772437	WORD	n/a	wordpools/wordpool_EN.txt	SCHOOL	1	22	[0, 0, 0]	n/a	FR1	3	R1062J
2529.007	1.6	2774871	WORD	n/a	wordpools/wordpool_EN.txt	RAT	2	22	[0, 0, 0]	n/a	FR1	3	R1062J
2531.607	1.6	2777471	WORD	n/a	wordpools/wordpool_EN.txt	VAN	3	22	[0, 0, 0]	n/a	FR1	3	R1062J
2534.14	1.6	2780004	WORD	n/a	wordpools/wordpool_EN.txt	PET	4	22	[0, 0, 0]	n/a	FR1	3	R1062J
2536.707	1.6	2782571	WORD	n/a	wordpools/wordpool_EN.txt	HAWK	5	22	[0, 0, 0]	n/a	FR1	3	R1062J
2539.308	1.6	2785172	WORD	n/a	wordpools/wordpool_EN.txt	SKUNK	6	22	[0, 0, 0]	n/a	FR1	3	R1062J
2541.823	1.6	2787687	WORD	n/a	wordpools/wordpool_EN.txt	POND	7	22	[0, 0, 0]	n/a	FR1	3	R1062J
2544.225	1.6	2790089	WORD	n/a	wordpools/wordpool_EN.txt	DUCK	8	22	[0, 0, 0]	n/a	FR1	3	R1062J
2546.808	1.6	2792672	WORD	n/a	wordpools/wordpool_EN.txt	BOARD	9	22	[0, 0, 0]	n/a	FR1	3	R1062J
2549.293	1.6	2795157	WORD	n/a	wordpools/wordpool_EN.txt	DOCK	10	22	[0, 0, 0]	n/a	FR1	3	R1062J
2551.909	1.6	2797773	WORD	n/a	wordpools/wordpool_EN.txt	STORE	11	22	[0, 0, 0]	n/a	FR1	3	R1062J
2554.477	1.6	2800341	WORD	n/a	wordpools/wordpool_EN.txt	APE	12	22	[0, 0, 0]	n/a	FR1	3	R1062J
2556.094	0.0	2801958	DISTRACT_START	n/a	n/a	n/a	-999	22	[0, 0, 0]	n/a	FR1	3	R1062J
2556.094	0.016	2801958	START	n/a	n/a	n/a	-999	22	[-999, -999, -999]	n/a	FR1	3	R1062J
2556.11	16.718	2801974	PROB	16.689	n/a	n/a	-999	22	[9, 1, 1]	11.0	FR1	3	R1062J
2572.828	12.987	2818692	PROB	12.987	n/a	n/a	-999	22	[6, 6, 7]	19.0	FR1	3	R1062J
2585.815	0.015	2831679	STOP	n/a	n/a	n/a	-999	22	[-999, -999, -999]	n/a	FR1	3	R1062J
2585.83	1.135	2831694	DISTRACT_END	n/a	n/a	n/a	-999	22	[0, 0, 0]	n/a	FR1	3	R1062J
2586.965	6.42	2832829	REC_START	n/a	n/a	n/a	-999	22	[0, 0, 0]	n/a	FR1	3	R1062J
2593.385	12.229	2839249	REC_WORD	6.42	n/a	DUCK	-999	22	[0, 0, 0]	n/a	FR1	3	R1062J
2605.614	11.362	2851478	REC_WORD	18.649	n/a	DOCK	-999	22	[0, 0, 0]	n/a	FR1	3	R1062J
2616.976	3.01	2862840	REC_END	n/a	n/a	n/a	-999	22	[0, 0, 0]	n/a	FR1	3	R1062J
2619.986	0.0	2865850	TRIAL	n/a	n/a	n/a	-999	23	[0, 0, 0]	n/a	FR1	3	R1062J
2619.986	10.0	2865850	COUNTDOWN_START	n/a	n/a	n/a	-999	23	[0, 0, 0]	n/a	FR1	3	R1062J
2630.414	0.007	2876278	COUNTDOWN_END	n/a	n/a	n/a	-999	23	[0, 0, 0]	n/a	FR1	3	R1062J
2630.421	1.6	2876285	ORIENT	n/a	n/a	n/a	-999	23	[0, 0, 0]	n/a	FR1	3	R1062J
2632.887	1.6	2878751	WORD	n/a	wordpools/wordpool_EN.txt	STOVE	1	23	[0, 0, 0]	n/a	FR1	3	R1062J
2635.405	1.6	2881269	WORD	n/a	wordpools/wordpool_EN.txt	TRUCK	2	23	[0, 0, 0]	n/a	FR1	3	R1062J
2637.922	1.6	2883786	WORD	n/a	wordpools/wordpool_EN.txt	PARK	3	23	[0, 0, 0]	n/a	FR1	3	R1062J
2640.489	1.6	2886353	WORD	n/a	wordpools/wordpool_EN.txt	SIGN	4	23	[0, 0, 0]	n/a	FR1	3	R1062J
2642.972	1.6	2888836	WORD	n/a	wordpools/wordpool_EN.txt	BATH	5	23	[0, 0, 0]	n/a	FR1	3	R1062J
2645.523	1.6	2891387	WORD	n/a	wordpools/wordpool_EN.txt	STAIR	6	23	[0, 0, 0]	n/a	FR1	3	R1062J
2647.923	1.6	2893787	WORD	n/a	wordpools/wordpool_EN.txt	STRAW	7	23	[0, 0, 0]	n/a	FR1	3	R1062J
2650.54	1.6	2896404	WORD	n/a	wordpools/wordpool_EN.txt	MILK	8	23	[0, 0, 0]	n/a	FR1	3	R1062J
2652.974	1.6	2898838	WORD	n/a	wordpools/wordpool_EN.txt	VEST	9	23	[0, 0, 0]	n/a	FR1	3	R1062J
2655.358	1.6	2901222	WORD	n/a	wordpools/wordpool_EN.txt	SWAMP	10	23	[0, 0, 0]	n/a	FR1	3	R1062J
2657.975	1.6	2903839	WORD	n/a	wordpools/wordpool_EN.txt	FARM	11	23	[0, 0, 0]	n/a	FR1	3	R1062J
2660.525	1.6	2906389	WORD	n/a	wordpools/wordpool_EN.txt	WEED	12	23	[0, 0, 0]	n/a	FR1	3	R1062J
2662.142	0.001	2908006	DISTRACT_START	n/a	n/a	n/a	-999	23	[0, 0, 0]	n/a	FR1	3	R1062J
2662.143	0.016	2908007	START	n/a	n/a	n/a	-999	23	[-999, -999, -999]	n/a	FR1	3	R1062J
2662.159	10.734	2908023	PROB	10.702	n/a	n/a	-999	23	[7, 1, 4]	11.0	FR1	3	R1062J
2672.893	11.84	2918757	PROB	11.84	n/a	n/a	-999	23	[4, 4, 3]	11.0	FR1	3	R1062J
2684.733	0.011	2930597	STOP	n/a	n/a	n/a	-999	23	[-999, -999, -999]	n/a	FR1	3	R1062J
2684.744	1.134	2930608	DISTRACT_END	n/a	n/a	n/a	-999	23	[0, 0, 0]	n/a	FR1	3	R1062J
2685.878	2.86	2931742	REC_START	n/a	n/a	n/a	-999	23	[0, 0, 0]	n/a	FR1	3	R1062J
2688.738	5.863	2934602	REC_WORD	2.86	n/a	BRICK	-999	23	[0, 0, 0]	n/a	FR1	3	R1062J
2694.601	21.288	2940465	REC_WORD	8.723	n/a	STOVE	-999	23	[0, 0, 0]	n/a	FR1	3	R1062J
2715.889	3.01	2961753	REC_END	n/a	n/a	n/a	-999	23	[0, 0, 0]	n/a	FR1	3	R1062J
2718.899	10.0	2964763	COUNTDOWN_START	n/a	n/a	n/a	-999	24	[0, 0, 0]	n/a	FR1	3	R1062J
2718.899	10.428	2964763	TRIAL	n/a	n/a	n/a	-999	24	[0, 0, 0]	n/a	FR1	3	R1062J
2729.327	0.008	2975191	COUNTDOWN_END	n/a	n/a	n/a	-999	24	[0, 0, 0]	n/a	FR1	3	R1062J
2729.335	1.6	2975199	ORIENT	n/a	n/a	n/a	-999	24	[0, 0, 0]	n/a	FR1	3	R1062J
2731.817	1.6	2977681	WORD	n/a	wordpools/wordpool_EN.txt	MAT	1	24	[0, 0, 0]	n/a	FR1	3	R1062J
2734.286	1.6	2980150	WORD	n/a	wordpools/wordpool_EN.txt	COW	2	24	[0, 0, 0]	n/a	FR1	3	R1062J
2736.702	1.6	2982566	WORD	n/a	wordpools/wordpool_EN.txt	PIE	3	24	[0, 0, 0]	n/a	FR1	3	R1062J
2739.186	1.6	2985050	WORD	n/a	wordpools/wordpool_EN.txt	BREAD	4	24	[0, 0, 0]	n/a	FR1	3	R1062J
2741.669	1.6	2987533	WORD	n/a	wordpools/wordpool_EN.txt	DOLL	5	24	[0, 0, 0]	n/a	FR1	3	R1062J
2744.154	1.6	2990018	WORD	n/a	wordpools/wordpool_EN.txt	VASE	6	24	[0, 0, 0]	n/a	FR1	3	R1062J
2746.621	1.6	2992485	WORD	n/a	wordpools/wordpool_EN.txt	SPRING	7	24	[0, 0, 0]	n/a	FR1	3	R1062J
2749.105	1.6	2994969	WORD	n/a	wordpools/wordpool_EN.txt	SINK	8	24	[0, 0, 0]	n/a	FR1	3	R1062J
2751.554	1.6	2997418	WORD	n/a	wordpools/wordpool_EN.txt	SEAT	9	24	[0, 0, 0]	n/a	FR1	3	R1062J
2753.955	1.6	2999819	WORD	n/a	wordpools/wordpool_EN.txt	SHEEP	10	24	[0, 0, 0]	n/a	FR1	3	R1062J
2756.422	1.6	3002286	WORD	n/a	wordpools/wordpool_EN.txt	CLOTH	11	24	[0, 0, 0]	n/a	FR1	3	R1062J
2758.838	1.6	3004702	WORD	n/a	wordpools/wordpool_EN.txt	BLUSH	12	24	[0, 0, 0]	n/a	FR1	3	R1062J
2760.439	0.001	3006303	DISTRACT_START	n/a	n/a	n/a	-999	24	[0, 0, 0]	n/a	FR1	3	R1062J
2760.44	0.016	3006304	START	n/a	n/a	n/a	-999	24	[-999, -999, -999]	n/a	FR1	3	R1062J
2760.456	12.085	3006320	PROB	12.051	n/a	n/a	-999	24	[6, 9, 1]	15.0	FR1	3	R1062J
2772.541	11.078	3018405	PROB	11.078	n/a	n/a	-999	24	[4, 8, 8]	20.0	FR1	3	R1062J
2783.619	0.007	3029483	STOP	n/a	n/a	n/a	-999	24	[-999, -999, -999]	n/a	FR1	3	R1062J
2783.626	1.166	3029490	DISTRACT_END	n/a	n/a	n/a	-999	24	[0, 0, 0]	n/a	FR1	3	R1062J
2784.792	3.081	3030656	REC_START	n/a	n/a	n/a	-999	24	[0, 0, 0]	n/a	FR1	3	R1062J
2787.873	2.952	3033737	REC_WORD	3.081	n/a	VASE	-999	24	[0, 0, 0]	n/a	FR1	3	R1062J
2790.825	4.116	3036689	REC_WORD	6.033	n/a	COW	-999	24	[0, 0, 0]	n/a	FR1	3	R1062J
2794.941	19.865	3040805	REC_WORD	10.149	n/a	PIE	-999	24	[0, 0, 0]	n/a	FR1	3	R1062J
2814.806	3.792	3060670	REC_END	n/a	n/a	n/a	-999	24	[0, 0, 0]	n/a	FR1	3	R1062J
2818.598	0.0	3064462	TRIAL	n/a	n/a	n/a	-999	25	[0, 0, 0]	n/a	FR1	3	R1062J
2818.598	10.0	3064462	COUNTDOWN_START	n/a	n/a	n/a	-999	25	[0, 0, 0]	n/a	FR1	3	R1062J
2829.026	0.023	3074890	COUNTDOWN_END	n/a	n/a	n/a	-999	25	[0, 0, 0]	n/a	FR1	3	R1062J
2829.049	1.6	3074913	ORIENT	n/a	n/a	n/a	-999	25	[0, 0, 0]	n/a	FR1	3	R1062J
2831.433	1.6	3077297	WORD	n/a	wordpools/wordpool_EN.txt	SHRIMP	1	25	[0, 0, 0]	n/a	FR1	3	R1062J
2834.049	1.6	3079913	WORD	n/a	wordpools/wordpool_EN.txt	SALT	2	25	[0, 0, 0]	n/a	FR1	3	R1062J
2836.45	1.6	3082314	WORD	n/a	wordpools/wordpool_EN.txt	STRING	3	25	[0, 0, 0]	n/a	FR1	3	R1062J
2838.984	1.6	3084848	WORD	n/a	wordpools/wordpool_EN.txt	DIME	4	25	[0, 0, 0]	n/a	FR1	3	R1062J
2841.584	1.6	3087448	WORD	n/a	wordpools/wordpool_EN.txt	SPOON	5	25	[0, 0, 0]	n/a	FR1	3	R1062J
2844.018	1.6	3089882	WORD	n/a	wordpools/wordpool_EN.txt	SPONGE	6	25	[0, 0, 0]	n/a	FR1	3	R1062J
2846.418	1.6	3092282	WORD	n/a	wordpools/wordpool_EN.txt	ZOO	7	25	[0, 0, 0]	n/a	FR1	3	R1062J
2848.919	1.6	3094783	WORD	n/a	wordpools/wordpool_EN.txt	CLOWN	8	25	[0, 0, 0]	n/a	FR1	3	R1062J
2851.402	1.6	3097266	WORD	n/a	wordpools/wordpool_EN.txt	PASTE	9	25	[0, 0, 0]	n/a	FR1	3	R1062J
2853.835	1.6	3099699	WORD	n/a	wordpools/wordpool_EN.txt	TOOL	10	25	[0, 0, 0]	n/a	FR1	3	R1062J
2856.37	1.6	3102234	WORD	n/a	wordpools/wordpool_EN.txt	TEETH	11	25	[0, 0, 0]	n/a	FR1	3	R1062J
2858.836	1.6	3104700	WORD	n/a	wordpools/wordpool_EN.txt	ELF	12	25	[0, 0, 0]	n/a	FR1	3	R1062J
2860.453	0.001	3106317	DISTRACT_START	n/a	n/a	n/a	-999	25	[0, 0, 0]	n/a	FR1	3	R1062J
2860.454	0.016	3106318	START	n/a	n/a	n/a	-999	25	[-999, -999, -999]	n/a	FR1	3	R1062J
2860.47	9.651	3106334	PROB	9.626	n/a	n/a	-999	25	[2, 2, 2]	6.0	FR1	3	R1062J
2870.121	17.59	3115985	PROB	17.59	n/a	n/a	-999	25	[7, 4, 3]	14.0	FR1	3	R1062J
2887.711	0.012	3133575	STOP	n/a	n/a	n/a	-999	25	[-999, -999, -999]	n/a	FR1	3	R1062J
2887.723	1.134	3133587	DISTRACT_END	n/a	n/a	n/a	-999	25	[0, 0, 0]	n/a	FR1	3	R1062J
2888.857	12.393	3134721	REC_START	n/a	n/a	n/a	-999	25	[0, 0, 0]	n/a	FR1	3	R1062J
2901.25	17.607	3147114	REC_WORD_VV	12.393	n/a	<>	-999	25	[0, 0, 0]	n/a	FR1	3	R1062J
2918.857	0.011	3164721	REC_WORD_VV	30.0	n/a	<>	-999	25	[0, 0, 0]	n/a	FR1	3	R1062J
2918.868	8.145	3164732	REC_END	n/a	n/a	n/a	-999	25	[0, 0, 0]	n/a	FR1	3	R1062J
2927.013	0.0	3172877	SESS_END	n/a	n/a	n/a	-999	25	[0, 0, 0]	n/a	FR1	3	R1062J
