onset	duration	sample	trial_type	response_time	stim_file	item_name	serialpos	list	test	answer	experiment	session	subject
0.0	28.015	26673	SESS_START	n/a	n/a	n/a	-999	-999	[0, 0, 0]	n/a	FR1	0	R1080E
28.015	10.0	54686	COUNTDOWN_START	n/a	n/a	n/a	-999	-999	[0, 0, 0]	n/a	FR1	0	R1080E
38.443	3.558	65114	COUNTDOWN_END	n/a	n/a	n/a	-999	-999	[0, 0, 0]	n/a	FR1	0	R1080E
42.001	1.6	68671	PRACTICE_WORD	n/a	n/a	RING	1	-1	[0, 0, 0]	n/a	FR1	0	R1080E
44.435	1.6	71105	PRACTICE_WORD	n/a	n/a	RHINO	2	-1	[0, 0, 0]	n/a	FR1	0	R1080E
46.936	1.6	73606	PRACTICE_WORD	n/a	n/a	FLOOD	3	-1	[0, 0, 0]	n/a	FR1	0	R1080E
49.419	1.6	76089	PRACTICE_WORD	n/a	n/a	IRON	4	-1	[0, 0, 0]	n/a	FR1	0	R1080E
51.887	1.6	78557	PRACTICE_WORD	n/a	n/a	WAGON	5	-1	[0, 0, 0]	n/a	FR1	0	R1080E
54.288	1.6	80958	PRACTICE_WORD	n/a	n/a	TONGUE	6	-1	[0, 0, 0]	n/a	FR1	0	R1080E
56.671	1.6	83341	PRACTICE_WORD	n/a	n/a	WATCH	7	-1	[0, 0, 0]	n/a	FR1	0	R1080E
59.189	1.6	85859	PRACTICE_WORD	n/a	n/a	CHEST	8	-1	[0, 0, 0]	n/a	FR1	0	R1080E
61.588	1.6	88257	PRACTICE_WORD	n/a	n/a	ATTIC	9	-1	[0, 0, 0]	n/a	FR1	0	R1080E
64.089	1.6	90758	PRACTICE_WORD	n/a	n/a	CAMEL	10	-1	[0, 0, 0]	n/a	FR1	0	R1080E
66.539	1.6	93208	PRACTICE_WORD	n/a	n/a	COTTON	11	-1	[0, 0, 0]	n/a	FR1	0	R1080E
69.124	1.6	95793	PRACTICE_WORD	n/a	n/a	BEAM	12	-1	[0, 0, 0]	n/a	FR1	0	R1080E
70.74	0.0	97409	PRACTICE_DISTRACT_START	n/a	n/a	n/a	-999	-1	[0, 0, 0]	n/a	FR1	0	R1080E
70.74	0.017	97409	START	n/a	n/a	n/a	-999	-1	[-999, -999, -999]	n/a	FR1	0	R1080E
70.757	23.999	97426	PROB	23.999	n/a	n/a	-999	-1	[9, 8, 7]	24.0	FR1	0	R1080E
94.756	0.004	121424	STOP	n/a	n/a	n/a	-999	-1	[-999, -999, -999]	n/a	FR1	0	R1080E
94.76	0.702	121428	PRACTICE_DISTRACT_END	n/a	n/a	n/a	-999	-1	[0, 0, 0]	n/a	FR1	0	R1080E
95.462	30.516	122130	PRACTICE_REC_START	n/a	n/a	n/a	-999	-1	[0, 0, 0]	n/a	FR1	0	R1080E
125.978	25.294	152644	PRACTICE_REC_END	n/a	n/a	n/a	-999	-1	[0, 0, 0]	n/a	FR1	0	R1080E
151.272	0.0	177937	TRIAL	n/a	n/a	n/a	-999	1	[0, 0, 0]	n/a	FR1	0	R1080E
151.272	10.0	177937	COUNTDOWN_START	n/a	n/a	n/a	-999	1	[0, 0, 0]	n/a	FR1	0	R1080E
161.7	0.006	188364	COUNTDOWN_END	n/a	n/a	n/a	-999	1	[0, 0, 0]	n/a	FR1	0	R1080E
161.706	1.6	188370	ORIENT	n/a	n/a	n/a	-999	1	[0, 0, 0]	n/a	FR1	0	R1080E
164.274	1.6	190938	WORD	n/a	wordpools/wordpool_EN.txt	GLOVE	1	1	[0, 0, 0]	n/a	FR1	0	R1080E
166.773	1.6	193437	WORD	n/a	wordpools/wordpool_EN.txt	PIPE	2	1	[0, 0, 0]	n/a	FR1	0	R1080E
169.225	1.6	195889	WORD	n/a	wordpools/wordpool_EN.txt	FAN	3	1	[0, 0, 0]	n/a	FR1	0	R1080E
171.674	1.6	198337	WORD	n/a	wordpools/wordpool_EN.txt	PURSE	4	1	[0, 0, 0]	n/a	FR1	0	R1080E
174.058	1.6	200721	WORD	n/a	wordpools/wordpool_EN.txt	BAND	5	1	[0, 0, 0]	n/a	FR1	0	R1080E
176.592	1.6	203255	WORD	n/a	wordpools/wordpool_EN.txt	PIN	6	1	[0, 0, 0]	n/a	FR1	0	R1080E
179.075	1.6	205738	WORD	n/a	wordpools/wordpool_EN.txt	WAND	7	1	[0, 0, 0]	n/a	FR1	0	R1080E
181.459	1.6	208122	WORD	n/a	wordpools/wordpool_EN.txt	TOOL	8	1	[0, 0, 0]	n/a	FR1	0	R1080E
183.926	1.6	210589	WORD	n/a	wordpools/wordpool_EN.txt	THUMB	9	1	[0, 0, 0]	n/a	FR1	0	R1080E
186.543	1.6	213206	WORD	n/a	wordpools/wordpool_EN.txt	YARD	10	1	[0, 0, 0]	n/a	FR1	0	R1080E
189.01	1.6	215672	WORD	n/a	wordpools/wordpool_EN.txt	VEST	11	1	[0, 0, 0]	n/a	FR1	0	R1080E
191.528	1.6	218190	WORD	n/a	wordpools/wordpool_EN.txt	DESK	12	1	[0, 0, 0]	n/a	FR1	0	R1080E
193.146	0.0	219808	DISTRACT_START	n/a	n/a	n/a	-999	1	[0, 0, 0]	n/a	FR1	0	R1080E
193.146	0.016	219808	START	n/a	n/a	n/a	-999	1	[-999, -999, -999]	n/a	FR1	0	R1080E
193.162	16.452	219824	PROB	16.429	n/a	n/a	-999	1	[5, 6, 6]	17.0	FR1	0	R1080E
209.614	14.612	236275	PROB	14.612	n/a	n/a	-999	1	[4, 8, 6]	18.0	FR1	0	R1080E
224.226	0.008	250887	STOP	n/a	n/a	n/a	-999	1	[-999, -999, -999]	n/a	FR1	0	R1080E
224.234	1.107	250895	DISTRACT_END	n/a	n/a	n/a	-999	1	[0, 0, 0]	n/a	FR1	0	R1080E
225.341	2.81	252002	REC_START	n/a	n/a	n/a	-999	1	[0, 0, 0]	n/a	FR1	0	R1080E
228.151	1.852	254811	REC_WORD	2.81	n/a	GLOVE	-999	1	[0, 0, 0]	n/a	FR1	0	R1080E
230.003	1.931	256663	REC_WORD	4.662	n/a	PURSE	-999	1	[0, 0, 0]	n/a	FR1	0	R1080E
231.934	1.611	258594	REC_WORD	6.593	n/a	BAND	-999	1	[0, 0, 0]	n/a	FR1	0	R1080E
233.545	21.799	260205	REC_WORD	8.204	n/a	PIN	-999	1	[0, 0, 0]	n/a	FR1	0	R1080E
255.344	11.13	282003	REC_END	n/a	n/a	n/a	-999	1	[0, 0, 0]	n/a	FR1	0	R1080E
266.474	0.0	293132	TRIAL	n/a	n/a	n/a	-999	2	[0, 0, 0]	n/a	FR1	0	R1080E
266.474	10.0	293132	COUNTDOWN_START	n/a	n/a	n/a	-999	2	[0, 0, 0]	n/a	FR1	0	R1080E
276.902	0.007	303560	COUNTDOWN_END	n/a	n/a	n/a	-999	2	[0, 0, 0]	n/a	FR1	0	R1080E
276.909	1.6	303567	ORIENT	n/a	n/a	n/a	-999	2	[0, 0, 0]	n/a	FR1	0	R1080E
279.526	1.6	306184	WORD	n/a	wordpools/wordpool_EN.txt	WORM	1	2	[0, 0, 0]	n/a	FR1	0	R1080E
282.06	1.6	308717	WORD	n/a	wordpools/wordpool_EN.txt	EGG	2	2	[0, 0, 0]	n/a	FR1	0	R1080E
284.661	1.6	311318	WORD	n/a	wordpools/wordpool_EN.txt	HOOK	3	2	[0, 0, 0]	n/a	FR1	0	R1080E
287.229	1.6	313886	WORD	n/a	wordpools/wordpool_EN.txt	WING	4	2	[0, 0, 0]	n/a	FR1	0	R1080E
289.728	1.6	316385	WORD	n/a	wordpools/wordpool_EN.txt	FISH	5	2	[0, 0, 0]	n/a	FR1	0	R1080E
292.163	1.6	318820	WORD	n/a	wordpools/wordpool_EN.txt	STORM	6	2	[0, 0, 0]	n/a	FR1	0	R1080E
294.629	1.6	321286	WORD	n/a	wordpools/wordpool_EN.txt	SEA	7	2	[0, 0, 0]	n/a	FR1	0	R1080E
297.079	1.6	323736	WORD	n/a	wordpools/wordpool_EN.txt	WEB	8	2	[0, 0, 0]	n/a	FR1	0	R1080E
299.663	1.6	326319	WORD	n/a	wordpools/wordpool_EN.txt	SHRIMP	9	2	[0, 0, 0]	n/a	FR1	0	R1080E
302.047	1.6	328703	WORD	n/a	wordpools/wordpool_EN.txt	SHELL	10	2	[0, 0, 0]	n/a	FR1	0	R1080E
304.497	1.6	331153	WORD	n/a	wordpools/wordpool_EN.txt	CUBE	11	2	[0, 0, 0]	n/a	FR1	0	R1080E
306.914	1.6	333570	WORD	n/a	wordpools/wordpool_EN.txt	BOAT	12	2	[0, 0, 0]	n/a	FR1	0	R1080E
308.531	0.001	335187	DISTRACT_START	n/a	n/a	n/a	-999	2	[0, 0, 0]	n/a	FR1	0	R1080E
308.532	0.016	335188	START	n/a	n/a	n/a	-999	2	[-999, -999, -999]	n/a	FR1	0	R1080E
308.548	7.201	335204	PROB	7.176	n/a	n/a	-999	2	[2, 5, 4]	11.0	FR1	0	R1080E
315.749	25.337	342405	PROB	25.337	n/a	n/a	-999	2	[9, 6, 6]	21.0	FR1	0	R1080E
341.086	0.018	367740	STOP	n/a	n/a	n/a	-999	2	[-999, -999, -999]	n/a	FR1	0	R1080E
341.104	1.068	367758	DISTRACT_END	n/a	n/a	n/a	-999	2	[0, 0, 0]	n/a	FR1	0	R1080E
342.172	2.705	368826	REC_START	n/a	n/a	n/a	-999	2	[0, 0, 0]	n/a	FR1	0	R1080E
344.877	1.192	371531	REC_WORD	2.705	n/a	SHRIMP	-999	2	[0, 0, 0]	n/a	FR1	0	R1080E
346.069	1.224	372723	REC_WORD	3.897	n/a	SHELL	-999	2	[0, 0, 0]	n/a	FR1	0	R1080E
347.293	5.846	373947	REC_WORD	5.121	n/a	SEA	-999	2	[0, 0, 0]	n/a	FR1	0	R1080E
353.139	3.34	379793	REC_WORD	10.967	n/a	BOAT	-999	2	[0, 0, 0]	n/a	FR1	0	R1080E
356.479	5.401	383132	REC_WORD	14.307	n/a	STORM	-999	2	[0, 0, 0]	n/a	FR1	0	R1080E
361.88	2.465	388533	REC_WORD	19.708	n/a	CHICKEN	-999	2	[0, 0, 0]	n/a	FR1	0	R1080E
364.345	7.841	390998	REC_WORD	22.173	n/a	WING	-999	2	[0, 0, 0]	n/a	FR1	0	R1080E
372.186	23.727	398839	REC_END	n/a	n/a	n/a	-999	2	[0, 0, 0]	n/a	FR1	0	R1080E
395.913	10.0	422564	COUNTDOWN_START	n/a	n/a	n/a	-999	3	[0, 0, 0]	n/a	FR1	0	R1080E
395.913	10.428	422564	TRIAL	n/a	n/a	n/a	-999	3	[0, 0, 0]	n/a	FR1	0	R1080E
406.341	0.007	432992	COUNTDOWN_END	n/a	n/a	n/a	-999	3	[0, 0, 0]	n/a	FR1	0	R1080E
406.348	1.6	432999	ORIENT	n/a	n/a	n/a	-999	3	[0, 0, 0]	n/a	FR1	0	R1080E
408.782	1.6	435433	WORD	n/a	wordpools/wordpool_EN.txt	POLE	1	3	[0, 0, 0]	n/a	FR1	0	R1080E
411.267	1.6	437917	WORD	n/a	wordpools/wordpool_EN.txt	HORSE	2	3	[0, 0, 0]	n/a	FR1	0	R1080E
413.75	1.6	440400	WORD	n/a	wordpools/wordpool_EN.txt	BALL	3	3	[0, 0, 0]	n/a	FR1	0	R1080E
416.184	1.6	442834	WORD	n/a	wordpools/wordpool_EN.txt	APE	4	3	[0, 0, 0]	n/a	FR1	0	R1080E
418.567	1.6	445217	WORD	n/a	wordpools/wordpool_EN.txt	CORD	5	3	[0, 0, 0]	n/a	FR1	0	R1080E
421.084	1.6	447734	WORD	n/a	wordpools/wordpool_EN.txt	MAP	6	3	[0, 0, 0]	n/a	FR1	0	R1080E
423.568	1.6	450218	WORD	n/a	wordpools/wordpool_EN.txt	MAIL	7	3	[0, 0, 0]	n/a	FR1	0	R1080E
426.119	1.6	452769	WORD	n/a	wordpools/wordpool_EN.txt	TOAD	8	3	[0, 0, 0]	n/a	FR1	0	R1080E
428.536	1.6	455185	WORD	n/a	wordpools/wordpool_EN.txt	TEETH	9	3	[0, 0, 0]	n/a	FR1	0	R1080E
431.137	1.6	457786	WORD	n/a	wordpools/wordpool_EN.txt	BEAR	10	3	[0, 0, 0]	n/a	FR1	0	R1080E
433.72	1.6	460369	WORD	n/a	wordpools/wordpool_EN.txt	CAT	11	3	[0, 0, 0]	n/a	FR1	0	R1080E
436.271	1.6	462920	WORD	n/a	wordpools/wordpool_EN.txt	JUDGE	12	3	[0, 0, 0]	n/a	FR1	0	R1080E
437.887	0.001	464536	DISTRACT_START	n/a	n/a	n/a	-999	3	[0, 0, 0]	n/a	FR1	0	R1080E
437.888	0.016	464537	START	n/a	n/a	n/a	-999	3	[-999, -999, -999]	n/a	FR1	0	R1080E
437.904	6.451	464553	PROB	6.43	n/a	n/a	-999	3	[1, 9, 1]	11.0	FR1	0	R1080E
444.355	4.785	471004	PROB	4.763	n/a	n/a	-999	3	[2, 3, 1]	6.0	FR1	0	R1080E
449.14	7.6	475788	PROB	7.579	n/a	n/a	-999	3	[3, 8, 9]	20.0	FR1	0	R1080E
456.74	11.163	483388	PROB	11.163	n/a	n/a	-999	3	[6, 7, 5]	18.0	FR1	0	R1080E
467.903	0.006	494550	STOP	n/a	n/a	n/a	-999	3	[-999, -999, -999]	n/a	FR1	0	R1080E
467.909	1.151	494556	DISTRACT_END	n/a	n/a	n/a	-999	3	[0, 0, 0]	n/a	FR1	0	R1080E
469.06	3.652	495707	REC_START	n/a	n/a	n/a	-999	3	[0, 0, 0]	n/a	FR1	0	R1080E
472.712	4.932	499359	REC_WORD	3.652	n/a	BALL	-999	3	[0, 0, 0]	n/a	FR1	0	R1080E
477.644	0.973	504291	REC_WORD	8.584	n/a	BEAR	-999	3	[0, 0, 0]	n/a	FR1	0	R1080E
478.617	7.635	505264	REC_WORD	9.557	n/a	TEETH	-999	3	[0, 0, 0]	n/a	FR1	0	R1080E
486.252	7.305	512898	REC_WORD	17.192	n/a	MALL	-999	3	[0, 0, 0]	n/a	FR1	0	R1080E
493.557	5.511	520203	REC_WORD	24.497	n/a	GLOVE	-999	3	[0, 0, 0]	n/a	FR1	0	R1080E
499.068	361.244	525714	REC_END	n/a	n/a	n/a	-999	3	[0, 0, 0]	n/a	FR1	0	R1080E
860.312	10.0	886938	COUNTDOWN_START	n/a	n/a	n/a	-999	4	[0, 0, 0]	n/a	FR1	0	R1080E
860.312	10.428	886938	TRIAL	n/a	n/a	n/a	-999	4	[0, 0, 0]	n/a	FR1	0	R1080E
870.74	0.006	897366	COUNTDOWN_END	n/a	n/a	n/a	-999	4	[0, 0, 0]	n/a	FR1	0	R1080E
870.746	1.6	897372	ORIENT	n/a	n/a	n/a	-999	4	[0, 0, 0]	n/a	FR1	0	R1080E
873.214	1.6	899839	WORD	n/a	wordpools/wordpool_EN.txt	SLEEVE	1	4	[0, 0, 0]	n/a	FR1	0	R1080E
875.68	1.6	902305	WORD	n/a	wordpools/wordpool_EN.txt	DITCH	2	4	[0, 0, 0]	n/a	FR1	0	R1080E
878.132	1.6	904757	WORD	n/a	wordpools/wordpool_EN.txt	VINE	3	4	[0, 0, 0]	n/a	FR1	0	R1080E
880.748	1.6	907373	WORD	n/a	wordpools/wordpool_EN.txt	BUSH	4	4	[0, 0, 0]	n/a	FR1	0	R1080E
883.232	1.6	909857	WORD	n/a	wordpools/wordpool_EN.txt	SNAIL	5	4	[0, 0, 0]	n/a	FR1	0	R1080E
885.732	1.6	912357	WORD	n/a	wordpools/wordpool_EN.txt	WHEEL	6	4	[0, 0, 0]	n/a	FR1	0	R1080E
888.349	1.6	914974	WORD	n/a	wordpools/wordpool_EN.txt	BIRD	7	4	[0, 0, 0]	n/a	FR1	0	R1080E
890.766	1.6	917390	WORD	n/a	wordpools/wordpool_EN.txt	EAR	8	4	[0, 0, 0]	n/a	FR1	0	R1080E
893.167	1.6	919791	WORD	n/a	wordpools/wordpool_EN.txt	SWAMP	9	4	[0, 0, 0]	n/a	FR1	0	R1080E
895.617	1.6	922241	WORD	n/a	wordpools/wordpool_EN.txt	HOLE	10	4	[0, 0, 0]	n/a	FR1	0	R1080E
898.135	1.6	924759	WORD	n/a	wordpools/wordpool_EN.txt	EEL	11	4	[0, 0, 0]	n/a	FR1	0	R1080E
900.551	1.6	927175	WORD	n/a	wordpools/wordpool_EN.txt	CRANE	12	4	[0, 0, 0]	n/a	FR1	0	R1080E
902.169	0.001	928793	DISTRACT_START	n/a	n/a	n/a	-999	4	[0, 0, 0]	n/a	FR1	0	R1080E
902.17	0.016	928794	START	n/a	n/a	n/a	-999	4	[-999, -999, -999]	n/a	FR1	0	R1080E
902.186	14.119	928810	PROB	14.098	n/a	n/a	-999	4	[9, 4, 9]	22.0	FR1	0	R1080E
916.305	5.3	942928	PROB	5.273	n/a	n/a	-999	4	[5, 5, 4]	14.0	FR1	0	R1080E
921.605	5.405	948228	PROB	5.405	n/a	n/a	-999	4	[4, 9, 6]	19.0	FR1	0	R1080E
927.01	0.012	953632	STOP	n/a	n/a	n/a	-999	4	[-999, -999, -999]	n/a	FR1	0	R1080E
927.022	1.202	953644	DISTRACT_END	n/a	n/a	n/a	-999	4	[0, 0, 0]	n/a	FR1	0	R1080E
928.224	2.081	954846	REC_START	n/a	n/a	n/a	-999	4	[0, 0, 0]	n/a	FR1	0	R1080E
930.305	5.336	956927	REC_WORD	2.081	n/a	CRANE	-999	4	[0, 0, 0]	n/a	FR1	0	R1080E
935.641	3.58	962263	REC_WORD	7.417	n/a	BIRD	-999	4	[0, 0, 0]	n/a	FR1	0	R1080E
939.221	2.401	965843	REC_WORD	10.997	n/a	EEL	-999	4	[0, 0, 0]	n/a	FR1	0	R1080E
941.622	4.467	968244	REC_WORD	13.398	n/a	SWAMP	-999	4	[0, 0, 0]	n/a	FR1	0	R1080E
946.089	10.358	972710	REC_WORD	17.865	n/a	SLEEVE	-999	4	[0, 0, 0]	n/a	FR1	0	R1080E
956.447	1.791	983068	REC_WORD	28.223	n/a	DITCH	-999	4	[0, 0, 0]	n/a	FR1	0	R1080E
958.238	7.391	984859	REC_END	n/a	n/a	n/a	-999	4	[0, 0, 0]	n/a	FR1	0	R1080E
965.629	0.0	992249	TRIAL	n/a	n/a	n/a	-999	5	[0, 0, 0]	n/a	FR1	0	R1080E
965.629	10.0	992249	COUNTDOWN_START	n/a	n/a	n/a	-999	5	[0, 0, 0]	n/a	FR1	0	R1080E
976.057	0.007	1002677	COUNTDOWN_END	n/a	n/a	n/a	-999	5	[0, 0, 0]	n/a	FR1	0	R1080E
976.064	1.6	1002684	ORIENT	n/a	n/a	n/a	-999	5	[0, 0, 0]	n/a	FR1	0	R1080E
978.565	1.6	1005185	WORD	n/a	wordpools/wordpool_EN.txt	BRUSH	1	5	[0, 0, 0]	n/a	FR1	0	R1080E
981.098	1.6	1007718	WORD	n/a	wordpools/wordpool_EN.txt	MUD	2	5	[0, 0, 0]	n/a	FR1	0	R1080E
983.549	1.6	1010168	WORD	n/a	wordpools/wordpool_EN.txt	PHONE	3	5	[0, 0, 0]	n/a	FR1	0	R1080E
985.933	1.6	1012552	WORD	n/a	wordpools/wordpool_EN.txt	CHALK	4	5	[0, 0, 0]	n/a	FR1	0	R1080E
988.383	1.6	1015002	WORD	n/a	wordpools/wordpool_EN.txt	SMOKE	5	5	[0, 0, 0]	n/a	FR1	0	R1080E
990.883	1.6	1017502	WORD	n/a	wordpools/wordpool_EN.txt	BATH	6	5	[0, 0, 0]	n/a	FR1	0	R1080E
993.401	1.6	1020020	WORD	n/a	wordpools/wordpool_EN.txt	FOAM	7	5	[0, 0, 0]	n/a	FR1	0	R1080E
996.018	1.6	1022637	WORD	n/a	wordpools/wordpool_EN.txt	FROG	8	5	[0, 0, 0]	n/a	FR1	0	R1080E
998.418	1.6	1025037	WORD	n/a	wordpools/wordpool_EN.txt	STRING	9	5	[0, 0, 0]	n/a	FR1	0	R1080E
1000.852	1.6	1027470	WORD	n/a	wordpools/wordpool_EN.txt	BOARD	10	5	[0, 0, 0]	n/a	FR1	0	R1080E
1003.436	1.6	1030054	WORD	n/a	wordpools/wordpool_EN.txt	PIE	11	5	[0, 0, 0]	n/a	FR1	0	R1080E
1005.853	1.6	1032471	WORD	n/a	wordpools/wordpool_EN.txt	TOOTH	12	5	[0, 0, 0]	n/a	FR1	0	R1080E
1007.47	0.0	1034088	DISTRACT_START	n/a	n/a	n/a	-999	5	[0, 0, 0]	n/a	FR1	0	R1080E
1007.47	0.016	1034088	START	n/a	n/a	n/a	-999	5	[-999, -999, -999]	n/a	FR1	0	R1080E
1007.486	5.968	1034104	PROB	5.94	n/a	n/a	-999	5	[6, 3, 6]	15.0	FR1	0	R1080E
1013.454	4.217	1040072	PROB	4.196	n/a	n/a	-999	5	[7, 6, 1]	14.0	FR1	0	R1080E
1017.671	19.017	1044289	PROB	19.017	n/a	n/a	-999	5	[8, 6, 9]	23.0	FR1	0	R1080E
1036.688	0.003	1063305	STOP	n/a	n/a	n/a	-999	5	[-999, -999, -999]	n/a	FR1	0	R1080E
1036.691	1.068	1063308	DISTRACT_END	n/a	n/a	n/a	-999	5	[0, 0, 0]	n/a	FR1	0	R1080E
1037.759	17.21	1064375	REC_START	n/a	n/a	n/a	-999	5	[0, 0, 0]	n/a	FR1	0	R1080E
1054.969	1.218	1081585	REC_WORD	17.21	n/a	FROG	-999	5	[0, 0, 0]	n/a	FR1	0	R1080E
1056.187	2.292	1082802	REC_WORD	18.428	n/a	SPONGE	-999	5	[0, 0, 0]	n/a	FR1	0	R1080E
1058.479	0.87	1085094	REC_WORD	20.72	n/a	PHONE	-999	5	[0, 0, 0]	n/a	FR1	0	R1080E
1059.349	5.345	1085964	REC_WORD	21.59	n/a	SMOKE	-999	5	[0, 0, 0]	n/a	FR1	0	R1080E
1064.694	3.074	1091309	REC_WORD	26.935	n/a	MUD	-999	5	[0, 0, 0]	n/a	FR1	0	R1080E
1067.768	7.797	1094383	REC_END	n/a	n/a	n/a	-999	5	[0, 0, 0]	n/a	FR1	0	R1080E
1075.565	0.0	1102179	TRIAL	n/a	n/a	n/a	-999	6	[0, 0, 0]	n/a	FR1	0	R1080E
1075.565	10.0	1102179	COUNTDOWN_START	n/a	n/a	n/a	-999	6	[0, 0, 0]	n/a	FR1	0	R1080E
1085.993	0.007	1112607	COUNTDOWN_END	n/a	n/a	n/a	-999	6	[0, 0, 0]	n/a	FR1	0	R1080E
1086.0	1.6	1112614	ORIENT	n/a	n/a	n/a	-999	6	[0, 0, 0]	n/a	FR1	0	R1080E
1088.467	1.6	1115081	WORD	n/a	wordpools/wordpool_EN.txt	ROPE	1	6	[0, 0, 0]	n/a	FR1	0	R1080E
1090.884	1.6	1117498	WORD	n/a	wordpools/wordpool_EN.txt	DUCK	2	6	[0, 0, 0]	n/a	FR1	0	R1080E
1093.269	1.6	1119882	WORD	n/a	wordpools/wordpool_EN.txt	SNAKE	3	6	[0, 0, 0]	n/a	FR1	0	R1080E
1095.852	1.6	1122465	WORD	n/a	wordpools/wordpool_EN.txt	TENT	4	6	[0, 0, 0]	n/a	FR1	0	R1080E
1098.337	1.6	1124950	WORD	n/a	wordpools/wordpool_EN.txt	MAZE	5	6	[0, 0, 0]	n/a	FR1	0	R1080E
1100.886	1.6	1127499	WORD	n/a	wordpools/wordpool_EN.txt	HAWK	6	6	[0, 0, 0]	n/a	FR1	0	R1080E
1103.436	1.6	1130049	WORD	n/a	wordpools/wordpool_EN.txt	WEED	7	6	[0, 0, 0]	n/a	FR1	0	R1080E
1106.07	1.6	1132683	WORD	n/a	wordpools/wordpool_EN.txt	OWL	8	6	[0, 0, 0]	n/a	FR1	0	R1080E
1108.587	1.6	1135200	WORD	n/a	wordpools/wordpool_EN.txt	DEER	9	6	[0, 0, 0]	n/a	FR1	0	R1080E
1111.104	1.6	1137716	WORD	n/a	wordpools/wordpool_EN.txt	BROOM	10	6	[0, 0, 0]	n/a	FR1	0	R1080E
1113.588	1.6	1140200	WORD	n/a	wordpools/wordpool_EN.txt	ROAD	11	6	[0, 0, 0]	n/a	FR1	0	R1080E
1116.14	1.6	1142752	WORD	n/a	wordpools/wordpool_EN.txt	DOCK	12	6	[0, 0, 0]	n/a	FR1	0	R1080E
1117.756	0.0	1144368	DISTRACT_START	n/a	n/a	n/a	-999	6	[0, 0, 0]	n/a	FR1	0	R1080E
1117.756	0.016	1144368	START	n/a	n/a	n/a	-999	6	[-999, -999, -999]	n/a	FR1	0	R1080E
1117.772	10.685	1144384	PROB	10.653	n/a	n/a	-999	6	[7, 5, 9]	21.0	FR1	0	R1080E
1128.457	32.085	1155069	PROB	32.085	n/a	n/a	-999	6	[7, 1, 5]	13.0	FR1	0	R1080E
1160.542	0.004	1187152	STOP	n/a	n/a	n/a	-999	6	[-999, -999, -999]	n/a	FR1	0	R1080E
1160.546	1.101	1187156	DISTRACT_END	n/a	n/a	n/a	-999	6	[0, 0, 0]	n/a	FR1	0	R1080E
1161.647	19.069	1188257	REC_START	n/a	n/a	n/a	-999	6	[0, 0, 0]	n/a	FR1	0	R1080E
1180.716	6.954	1207325	REC_WORD	19.069	n/a	DEER	-999	6	[0, 0, 0]	n/a	FR1	0	R1080E
1187.67	1.767	1214278	REC_WORD	26.023	n/a	HOG	-999	6	[0, 0, 0]	n/a	FR1	0	R1080E
1189.437	2.22	1216045	REC_WORD	27.79	n/a	FROG	-999	6	[0, 0, 0]	n/a	FR1	0	R1080E
1191.657	17.965	1218265	REC_END	n/a	n/a	n/a	-999	6	[0, 0, 0]	n/a	FR1	0	R1080E
1209.622	0.0	1236229	TRIAL	n/a	n/a	n/a	-999	7	[0, 0, 0]	n/a	FR1	0	R1080E
1209.622	10.0	1236229	COUNTDOWN_START	n/a	n/a	n/a	-999	7	[0, 0, 0]	n/a	FR1	0	R1080E
1220.05	0.007	1246657	COUNTDOWN_END	n/a	n/a	n/a	-999	7	[0, 0, 0]	n/a	FR1	0	R1080E
1220.057	1.6	1246664	ORIENT	n/a	n/a	n/a	-999	7	[0, 0, 0]	n/a	FR1	0	R1080E
1222.474	1.6	1249080	WORD	n/a	wordpools/wordpool_EN.txt	MOUTH	1	7	[0, 0, 0]	n/a	FR1	0	R1080E
1224.908	1.6	1251514	WORD	n/a	wordpools/wordpool_EN.txt	ROSE	2	7	[0, 0, 0]	n/a	FR1	0	R1080E
1227.326	1.6	1253932	WORD	n/a	wordpools/wordpool_EN.txt	FLOOR	3	7	[0, 0, 0]	n/a	FR1	0	R1080E
1229.792	1.6	1256398	WORD	n/a	wordpools/wordpool_EN.txt	PARK	4	7	[0, 0, 0]	n/a	FR1	0	R1080E
1232.176	1.6	1258782	WORD	n/a	wordpools/wordpool_EN.txt	SHOE	5	7	[0, 0, 0]	n/a	FR1	0	R1080E
1234.726	1.6	1261332	WORD	n/a	wordpools/wordpool_EN.txt	BOOT	6	7	[0, 0, 0]	n/a	FR1	0	R1080E
1237.327	1.6	1263933	WORD	n/a	wordpools/wordpool_EN.txt	CLOWN	7	7	[0, 0, 0]	n/a	FR1	0	R1080E
1239.777	1.6	1266382	WORD	n/a	wordpools/wordpool_EN.txt	SUIT	8	7	[0, 0, 0]	n/a	FR1	0	R1080E
1242.295	1.6	1268900	WORD	n/a	wordpools/wordpool_EN.txt	CAPE	9	7	[0, 0, 0]	n/a	FR1	0	R1080E
1244.878	1.6	1271483	WORD	n/a	wordpools/wordpool_EN.txt	JUICE	10	7	[0, 0, 0]	n/a	FR1	0	R1080E
1247.412	1.6	1274017	WORD	n/a	wordpools/wordpool_EN.txt	WORLD	11	7	[0, 0, 0]	n/a	FR1	0	R1080E
1249.912	1.6	1276517	WORD	n/a	wordpools/wordpool_EN.txt	BAG	12	7	[0, 0, 0]	n/a	FR1	0	R1080E
1251.529	0.001	1278134	DISTRACT_START	n/a	n/a	n/a	-999	7	[0, 0, 0]	n/a	FR1	0	R1080E
1251.53	0.016	1278135	START	n/a	n/a	n/a	-999	7	[-999, -999, -999]	n/a	FR1	0	R1080E
1251.546	9.418	1278151	PROB	9.396	n/a	n/a	-999	7	[2, 8, 6]	16.0	FR1	0	R1080E
1260.964	10.102	1287568	PROB	10.064	n/a	n/a	-999	7	[9, 6, 2]	17.0	FR1	0	R1080E
1271.066	4.97	1297670	PROB	4.97	n/a	n/a	-999	7	[4, 6, 1]	11.0	FR1	0	R1080E
1276.036	0.014	1302640	STOP	n/a	n/a	n/a	-999	7	[-999, -999, -999]	n/a	FR1	0	R1080E
1276.05	1.152	1302654	DISTRACT_END	n/a	n/a	n/a	-999	7	[0, 0, 0]	n/a	FR1	0	R1080E
1277.202	2.488	1303805	REC_START	n/a	n/a	n/a	-999	7	[0, 0, 0]	n/a	FR1	0	R1080E
1279.69	1.312	1306293	REC_WORD	2.488	n/a	CAPE	-999	7	[0, 0, 0]	n/a	FR1	0	R1080E
1281.002	8.617	1307605	REC_WORD	3.8	n/a	BEAR	-999	7	[0, 0, 0]	n/a	FR1	0	R1080E
1289.619	9.611	1316222	REC_WORD	12.417	n/a	SNAKE	-999	7	[0, 0, 0]	n/a	FR1	0	R1080E
1299.23	7.983	1325832	REC_WORD	22.028	n/a	HOG	-999	7	[0, 0, 0]	n/a	FR1	0	R1080E
1307.213	69.204	1333815	REC_END	n/a	n/a	n/a	-999	7	[0, 0, 0]	n/a	FR1	0	R1080E
1376.417	0.0	1403015	TRIAL	n/a	n/a	n/a	-999	8	[0, 0, 0]	n/a	FR1	0	R1080E
1376.417	10.0	1403015	COUNTDOWN_START	n/a	n/a	n/a	-999	8	[0, 0, 0]	n/a	FR1	0	R1080E
1386.845	0.007	1413443	COUNTDOWN_END	n/a	n/a	n/a	-999	8	[0, 0, 0]	n/a	FR1	0	R1080E
1386.852	1.6	1413450	ORIENT	n/a	n/a	n/a	-999	8	[0, 0, 0]	n/a	FR1	0	R1080E
1389.271	1.6	1415868	WORD	n/a	wordpools/wordpool_EN.txt	FARM	1	8	[0, 0, 0]	n/a	FR1	0	R1080E
1391.853	1.6	1418450	WORD	n/a	wordpools/wordpool_EN.txt	LAKE	2	8	[0, 0, 0]	n/a	FR1	0	R1080E
1394.271	1.6	1420868	WORD	n/a	wordpools/wordpool_EN.txt	SNOW	3	8	[0, 0, 0]	n/a	FR1	0	R1080E
1396.871	1.6	1423468	WORD	n/a	wordpools/wordpool_EN.txt	RAKE	4	8	[0, 0, 0]	n/a	FR1	0	R1080E
1399.388	1.6	1425985	WORD	n/a	wordpools/wordpool_EN.txt	CALF	5	8	[0, 0, 0]	n/a	FR1	0	R1080E
1401.988	1.6	1428585	WORD	n/a	wordpools/wordpool_EN.txt	SPRING	6	8	[0, 0, 0]	n/a	FR1	0	R1080E
1404.539	1.6	1431136	WORD	n/a	wordpools/wordpool_EN.txt	GRASS	7	8	[0, 0, 0]	n/a	FR1	0	R1080E
1407.157	1.6	1433753	WORD	n/a	wordpools/wordpool_EN.txt	SKUNK	8	8	[0, 0, 0]	n/a	FR1	0	R1080E
1409.557	1.6	1436153	WORD	n/a	wordpools/wordpool_EN.txt	WOOD	9	8	[0, 0, 0]	n/a	FR1	0	R1080E
1412.141	1.6	1438737	WORD	n/a	wordpools/wordpool_EN.txt	SIGN	10	8	[0, 0, 0]	n/a	FR1	0	R1080E
1414.691	1.6	1441287	WORD	n/a	wordpools/wordpool_EN.txt	ELF	11	8	[0, 0, 0]	n/a	FR1	0	R1080E
1417.159	1.6	1443755	WORD	n/a	wordpools/wordpool_EN.txt	MOTH	12	8	[0, 0, 0]	n/a	FR1	0	R1080E
1418.775	0.0	1445371	DISTRACT_START	n/a	n/a	n/a	-999	8	[0, 0, 0]	n/a	FR1	0	R1080E
1418.775	0.016	1445371	START	n/a	n/a	n/a	-999	8	[-999, -999, -999]	n/a	FR1	0	R1080E
1418.791	12.036	1445387	PROB	12.004	n/a	n/a	-999	8	[7, 4, 9]	20.0	FR1	0	R1080E
1430.827	6.634	1457422	PROB	6.603	n/a	n/a	-999	8	[2, 2, 7]	11.0	FR1	0	R1080E
1437.461	4.666	1464056	PROB	4.666	n/a	n/a	-999	8	[2, 1, 6]	9.0	FR1	0	R1080E
1442.127	0.019	1468722	STOP	n/a	n/a	n/a	-999	8	[-999, -999, -999]	n/a	FR1	0	R1080E
1442.146	1.151	1468741	DISTRACT_END	n/a	n/a	n/a	-999	8	[0, 0, 0]	n/a	FR1	0	R1080E
1443.297	5.383	1469891	REC_START	n/a	n/a	n/a	-999	8	[0, 0, 0]	n/a	FR1	0	R1080E
1448.68	3.509	1475274	REC_WORD	5.383	n/a	CALF	-999	8	[0, 0, 0]	n/a	FR1	0	R1080E
1452.189	1.768	1478783	REC_WORD	8.892	n/a	RAKE	-999	8	[0, 0, 0]	n/a	FR1	0	R1080E
1453.957	4.702	1480551	REC_WORD	10.66	n/a	FARM	-999	8	[0, 0, 0]	n/a	FR1	0	R1080E
1458.659	1.475	1485253	REC_WORD	15.362	n/a	SNOW	-999	8	[0, 0, 0]	n/a	FR1	0	R1080E
1460.134	13.177	1486728	REC_WORD	16.837	n/a	SPRING	-999	8	[0, 0, 0]	n/a	FR1	0	R1080E
1473.311	8.075	1499904	REC_END	n/a	n/a	n/a	-999	8	[0, 0, 0]	n/a	FR1	0	R1080E
1481.386	0.0	1507978	TRIAL	n/a	n/a	n/a	-999	9	[0, 0, 0]	n/a	FR1	0	R1080E
1481.386	10.0	1507978	COUNTDOWN_START	n/a	n/a	n/a	-999	9	[0, 0, 0]	n/a	FR1	0	R1080E
1491.814	0.007	1518406	COUNTDOWN_END	n/a	n/a	n/a	-999	9	[0, 0, 0]	n/a	FR1	0	R1080E
1491.821	1.6	1518413	ORIENT	n/a	n/a	n/a	-999	9	[0, 0, 0]	n/a	FR1	0	R1080E
1494.405	1.6	1520997	WORD	n/a	wordpools/wordpool_EN.txt	CLOCK	1	9	[0, 0, 0]	n/a	FR1	0	R1080E
1496.972	1.6	1523564	WORD	n/a	wordpools/wordpool_EN.txt	SPOON	2	9	[0, 0, 0]	n/a	FR1	0	R1080E
1499.389	1.6	1525980	WORD	n/a	wordpools/wordpool_EN.txt	SWORD	3	9	[0, 0, 0]	n/a	FR1	0	R1080E
1501.906	1.6	1528497	WORD	n/a	wordpools/wordpool_EN.txt	VAN	4	9	[0, 0, 0]	n/a	FR1	0	R1080E
1504.44	1.6	1531031	WORD	n/a	wordpools/wordpool_EN.txt	BOOK	5	9	[0, 0, 0]	n/a	FR1	0	R1080E
1507.007	1.6	1533598	WORD	n/a	wordpools/wordpool_EN.txt	ROOM	6	9	[0, 0, 0]	n/a	FR1	0	R1080E
1509.457	1.6	1536048	WORD	n/a	wordpools/wordpool_EN.txt	STREET	7	9	[0, 0, 0]	n/a	FR1	0	R1080E
1512.024	1.6	1538615	WORD	n/a	wordpools/wordpool_EN.txt	BLUSH	8	9	[0, 0, 0]	n/a	FR1	0	R1080E
1514.458	1.6	1541049	WORD	n/a	wordpools/wordpool_EN.txt	SOUP	9	9	[0, 0, 0]	n/a	FR1	0	R1080E
1516.909	1.6	1543499	WORD	n/a	wordpools/wordpool_EN.txt	TRUCK	10	9	[0, 0, 0]	n/a	FR1	0	R1080E
1519.31	1.6	1545900	WORD	n/a	wordpools/wordpool_EN.txt	GOAT	11	9	[0, 0, 0]	n/a	FR1	0	R1080E
1521.743	1.6	1548333	WORD	n/a	wordpools/wordpool_EN.txt	CART	12	9	[0, 0, 0]	n/a	FR1	0	R1080E
1523.36	0.0	1549950	DISTRACT_START	n/a	n/a	n/a	-999	9	[0, 0, 0]	n/a	FR1	0	R1080E
1523.36	0.016	1549950	START	n/a	n/a	n/a	-999	9	[-999, -999, -999]	n/a	FR1	0	R1080E
1523.376	6.568	1549966	PROB	6.541	n/a	n/a	-999	9	[5, 2, 8]	15.0	FR1	0	R1080E
1529.944	16.38	1556534	PROB	16.38	n/a	n/a	-999	9	[8, 3, 6]	17.0	FR1	0	R1080E
1546.324	0.007	1572913	STOP	n/a	n/a	n/a	-999	9	[-999, -999, -999]	n/a	FR1	0	R1080E
1546.331	1.15	1572920	DISTRACT_END	n/a	n/a	n/a	-999	9	[0, 0, 0]	n/a	FR1	0	R1080E
1547.481	30.005	1574070	REC_START	n/a	n/a	n/a	-999	9	[0, 0, 0]	n/a	FR1	0	R1080E
1577.486	0.009	1604073	REC_WORD_VV	30.005	n/a	<>	-999	9	[0, 0, 0]	n/a	FR1	0	R1080E
1577.495	95.357	1604082	REC_END	n/a	n/a	n/a	-999	9	[0, 0, 0]	n/a	FR1	0	R1080E
1672.852	10.0	1699434	COUNTDOWN_START	n/a	n/a	n/a	-999	10	[0, 0, 0]	n/a	FR1	0	R1080E
1672.853	10.427	1699435	TRIAL	n/a	n/a	n/a	-999	10	[0, 0, 0]	n/a	FR1	0	R1080E
1683.28	0.009	1709861	COUNTDOWN_END	n/a	n/a	n/a	-999	10	[0, 0, 0]	n/a	FR1	0	R1080E
1683.289	1.6	1709870	ORIENT	n/a	n/a	n/a	-999	10	[0, 0, 0]	n/a	FR1	0	R1080E
1685.805	1.6	1712386	WORD	n/a	wordpools/wordpool_EN.txt	ANT	1	10	[0, 0, 0]	n/a	FR1	0	R1080E
1688.206	1.6	1714787	WORD	n/a	wordpools/wordpool_EN.txt	RAT	2	10	[0, 0, 0]	n/a	FR1	0	R1080E
1690.689	1.6	1717270	WORD	n/a	wordpools/wordpool_EN.txt	PEAR	3	10	[0, 0, 0]	n/a	FR1	0	R1080E
1693.307	1.6	1719888	WORD	n/a	wordpools/wordpool_EN.txt	BRANCH	4	10	[0, 0, 0]	n/a	FR1	0	R1080E
1695.773	1.6	1722354	WORD	n/a	wordpools/wordpool_EN.txt	CAVE	5	10	[0, 0, 0]	n/a	FR1	0	R1080E
1698.341	1.6	1724922	WORD	n/a	wordpools/wordpool_EN.txt	MOLE	6	10	[0, 0, 0]	n/a	FR1	0	R1080E
1700.824	1.6	1727404	WORD	n/a	wordpools/wordpool_EN.txt	HEART	7	10	[0, 0, 0]	n/a	FR1	0	R1080E
1703.342	1.6	1729922	WORD	n/a	wordpools/wordpool_EN.txt	SLIME	8	10	[0, 0, 0]	n/a	FR1	0	R1080E
1705.858	1.6	1732438	WORD	n/a	wordpools/wordpool_EN.txt	FOOD	9	10	[0, 0, 0]	n/a	FR1	0	R1080E
1708.442	1.6	1735022	WORD	n/a	wordpools/wordpool_EN.txt	BEE	10	10	[0, 0, 0]	n/a	FR1	0	R1080E
1711.009	1.6	1737589	WORD	n/a	wordpools/wordpool_EN.txt	BED	11	10	[0, 0, 0]	n/a	FR1	0	R1080E
1713.393	1.6	1739973	WORD	n/a	wordpools/wordpool_EN.txt	PLANT	12	10	[0, 0, 0]	n/a	FR1	0	R1080E
1715.01	0.0	1741590	DISTRACT_START	n/a	n/a	n/a	-999	10	[0, 0, 0]	n/a	FR1	0	R1080E
1715.01	0.016	1741590	START	n/a	n/a	n/a	-999	10	[-999, -999, -999]	n/a	FR1	0	R1080E
1715.026	9.335	1741606	PROB	9.311	n/a	n/a	-999	10	[3, 9, 2]	14.0	FR1	0	R1080E
1724.361	8.269	1750940	PROB	8.244	n/a	n/a	-999	10	[3, 8, 4]	15.0	FR1	0	R1080E
1732.63	11.593	1759209	PROB	11.593	n/a	n/a	-999	10	[4, 2, 4]	10.0	FR1	0	R1080E
1744.223	0.009	1770801	STOP	n/a	n/a	n/a	-999	10	[-999, -999, -999]	n/a	FR1	0	R1080E
1744.232	1.15	1770810	DISTRACT_END	n/a	n/a	n/a	-999	10	[0, 0, 0]	n/a	FR1	0	R1080E
1745.382	2.266	1771960	REC_START	n/a	n/a	n/a	-999	10	[0, 0, 0]	n/a	FR1	0	R1080E
1747.648	3.451	1774226	REC_WORD	2.266	n/a	ANT	-999	10	[0, 0, 0]	n/a	FR1	0	R1080E
1751.099	2.524	1777677	REC_WORD	5.717	n/a	MOLE	-999	10	[0, 0, 0]	n/a	FR1	0	R1080E
1753.623	2.365	1780201	REC_WORD	8.241	n/a	SLIME	-999	10	[0, 0, 0]	n/a	FR1	0	R1080E
1755.988	2.961	1782565	REC_WORD	10.606	n/a	FOOD	-999	10	[0, 0, 0]	n/a	FR1	0	R1080E
1758.949	5.831	1785526	REC_WORD	13.567	n/a	HEART	-999	10	[0, 0, 0]	n/a	FR1	0	R1080E
1764.78	7.456	1791357	REC_WORD	19.398	n/a	CAVE	-999	10	[0, 0, 0]	n/a	FR1	0	R1080E
1772.236	3.16	1798813	REC_WORD	26.854	n/a	SLIM	-999	10	[0, 0, 0]	n/a	FR1	0	R1080E
1775.396	13.993	1801972	REC_END	n/a	n/a	n/a	-999	10	[0, 0, 0]	n/a	FR1	0	R1080E
1789.389	10.0	1815965	COUNTDOWN_START	n/a	n/a	n/a	-999	11	[0, 0, 0]	n/a	FR1	0	R1080E
1789.39	10.427	1815966	TRIAL	n/a	n/a	n/a	-999	11	[0, 0, 0]	n/a	FR1	0	R1080E
1799.817	0.008	1826392	COUNTDOWN_END	n/a	n/a	n/a	-999	11	[0, 0, 0]	n/a	FR1	0	R1080E
1799.825	1.6	1826400	ORIENT	n/a	n/a	n/a	-999	11	[0, 0, 0]	n/a	FR1	0	R1080E
1802.342	1.6	1828917	WORD	n/a	wordpools/wordpool_EN.txt	GUARD	1	11	[0, 0, 0]	n/a	FR1	0	R1080E
1804.892	1.6	1831467	WORD	n/a	wordpools/wordpool_EN.txt	FENCE	2	11	[0, 0, 0]	n/a	FR1	0	R1080E
1807.359	1.6	1833934	WORD	n/a	wordpools/wordpool_EN.txt	DOLL	3	11	[0, 0, 0]	n/a	FR1	0	R1080E
1809.826	1.6	1836401	WORD	n/a	wordpools/wordpool_EN.txt	BAT	4	11	[0, 0, 0]	n/a	FR1	0	R1080E
1812.36	1.6	1838934	WORD	n/a	wordpools/wordpool_EN.txt	LEG	5	11	[0, 0, 0]	n/a	FR1	0	R1080E
1814.927	1.6	1841501	WORD	n/a	wordpools/wordpool_EN.txt	HORN	6	11	[0, 0, 0]	n/a	FR1	0	R1080E
1817.394	1.6	1843968	WORD	n/a	wordpools/wordpool_EN.txt	OAR	7	11	[0, 0, 0]	n/a	FR1	0	R1080E
1819.811	1.6	1846385	WORD	n/a	wordpools/wordpool_EN.txt	FOOT	8	11	[0, 0, 0]	n/a	FR1	0	R1080E
1822.412	1.6	1848986	WORD	n/a	wordpools/wordpool_EN.txt	BOY	9	11	[0, 0, 0]	n/a	FR1	0	R1080E
1824.862	1.6	1851436	WORD	n/a	wordpools/wordpool_EN.txt	SOCK	10	11	[0, 0, 0]	n/a	FR1	0	R1080E
1827.33	1.6	1853904	WORD	n/a	wordpools/wordpool_EN.txt	LOCK	11	11	[0, 0, 0]	n/a	FR1	0	R1080E
1829.896	1.6	1856469	WORD	n/a	wordpools/wordpool_EN.txt	PEN	12	11	[0, 0, 0]	n/a	FR1	0	R1080E
1831.513	0.001	1858086	DISTRACT_START	n/a	n/a	n/a	-999	11	[0, 0, 0]	n/a	FR1	0	R1080E
1831.514	0.016	1858087	START	n/a	n/a	n/a	-999	11	[-999, -999, -999]	n/a	FR1	0	R1080E
1831.53	6.451	1858103	PROB	6.426	n/a	n/a	-999	11	[7, 7, 6]	20.0	FR1	0	R1080E
1837.981	5.718	1864554	PROB	5.695	n/a	n/a	-999	11	[6, 6, 2]	14.0	FR1	0	R1080E
1843.699	4.568	1870272	PROB	4.546	n/a	n/a	-999	11	[6, 6, 6]	18.0	FR1	0	R1080E
1848.267	5.689	1874839	PROB	5.689	n/a	n/a	-999	11	[3, 8, 4]	15.0	FR1	0	R1080E
1853.956	0.011	1880528	STOP	n/a	n/a	n/a	-999	11	[-999, -999, -999]	n/a	FR1	0	R1080E
1853.967	1.101	1880539	DISTRACT_END	n/a	n/a	n/a	-999	11	[0, 0, 0]	n/a	FR1	0	R1080E
1855.068	2.878	1881640	REC_START	n/a	n/a	n/a	-999	11	[0, 0, 0]	n/a	FR1	0	R1080E
1857.946	6.933	1884518	REC_WORD	2.878	n/a	HEIGHT	-999	11	[0, 0, 0]	n/a	FR1	0	R1080E
1864.879	5.681	1891451	REC_WORD	9.811	n/a	OAR	-999	11	[0, 0, 0]	n/a	FR1	0	R1080E
1870.56	9.796	1897131	REC_WORD	15.492	n/a	HOLE	-999	11	[0, 0, 0]	n/a	FR1	0	R1080E
1880.356	4.726	1906927	REC_WORD	25.288	n/a	TRUCK	-999	11	[0, 0, 0]	n/a	FR1	0	R1080E
1885.082	12.161	1911652	REC_END	n/a	n/a	n/a	-999	11	[0, 0, 0]	n/a	FR1	0	R1080E
1897.243	0.0	1923813	TRIAL	n/a	n/a	n/a	-999	12	[0, 0, 0]	n/a	FR1	0	R1080E
1897.243	10.0	1923813	COUNTDOWN_START	n/a	n/a	n/a	-999	12	[0, 0, 0]	n/a	FR1	0	R1080E
1907.671	0.022	1934240	COUNTDOWN_END	n/a	n/a	n/a	-999	12	[0, 0, 0]	n/a	FR1	0	R1080E
1907.693	1.6	1934262	ORIENT	n/a	n/a	n/a	-999	12	[0, 0, 0]	n/a	FR1	0	R1080E
1910.278	1.6	1936847	WORD	n/a	wordpools/wordpool_EN.txt	FORT	1	12	[0, 0, 0]	n/a	FR1	0	R1080E
1912.678	1.6	1939247	WORD	n/a	wordpools/wordpool_EN.txt	ZOO	2	12	[0, 0, 0]	n/a	FR1	0	R1080E
1915.061	1.6	1941630	WORD	n/a	wordpools/wordpool_EN.txt	SHARK	3	12	[0, 0, 0]	n/a	FR1	0	R1080E
1917.628	1.6	1944197	WORD	n/a	wordpools/wordpool_EN.txt	ROCK	4	12	[0, 0, 0]	n/a	FR1	0	R1080E
1920.213	1.6	1946782	WORD	n/a	wordpools/wordpool_EN.txt	SAIL	5	12	[0, 0, 0]	n/a	FR1	0	R1080E
1922.629	1.6	1949197	WORD	n/a	wordpools/wordpool_EN.txt	BEACH	6	12	[0, 0, 0]	n/a	FR1	0	R1080E
1925.231	1.6	1951799	WORD	n/a	wordpools/wordpool_EN.txt	FLAG	7	12	[0, 0, 0]	n/a	FR1	0	R1080E
1927.614	1.6	1954182	WORD	n/a	wordpools/wordpool_EN.txt	FUR	8	12	[0, 0, 0]	n/a	FR1	0	R1080E
1930.114	1.6	1956682	WORD	n/a	wordpools/wordpool_EN.txt	DOG	9	12	[0, 0, 0]	n/a	FR1	0	R1080E
1932.514	1.6	1959082	WORD	n/a	wordpools/wordpool_EN.txt	FLEA	10	12	[0, 0, 0]	n/a	FR1	0	R1080E
1934.948	1.6	1961516	WORD	n/a	wordpools/wordpool_EN.txt	JAIL	11	12	[0, 0, 0]	n/a	FR1	0	R1080E
1937.432	1.6	1964000	WORD	n/a	wordpools/wordpool_EN.txt	TRASH	12	12	[0, 0, 0]	n/a	FR1	0	R1080E
1939.049	0.001	1965617	DISTRACT_START	n/a	n/a	n/a	-999	12	[0, 0, 0]	n/a	FR1	0	R1080E
1939.05	0.016	1965618	START	n/a	n/a	n/a	-999	12	[-999, -999, -999]	n/a	FR1	0	R1080E
1939.066	5.534	1965634	PROB	5.507	n/a	n/a	-999	12	[5, 2, 2]	9.0	FR1	0	R1080E
1944.6	9.952	1971167	PROB	9.921	n/a	n/a	-999	12	[9, 6, 7]	22.0	FR1	0	R1080E
1954.552	18.0	1981119	PROB	18.0	n/a	n/a	-999	12	[9, 3, 2]	14.0	FR1	0	R1080E
1972.552	0.019	1999118	STOP	n/a	n/a	n/a	-999	12	[-999, -999, -999]	n/a	FR1	0	R1080E
1972.571	1.118	1999137	DISTRACT_END	n/a	n/a	n/a	-999	12	[0, 0, 0]	n/a	FR1	0	R1080E
1973.689	30.0	2000255	REC_START	n/a	n/a	n/a	-999	12	[0, 0, 0]	n/a	FR1	0	R1080E
2003.689	0.009	2030253	REC_WORD_VV	30.0	n/a	<>	-999	12	[0, 0, 0]	n/a	FR1	0	R1080E
2003.698	102.663	2030262	REC_END	n/a	n/a	n/a	-999	12	[0, 0, 0]	n/a	FR1	0	R1080E
2106.361	10.0	2132919	COUNTDOWN_START	n/a	n/a	n/a	-999	13	[0, 0, 0]	n/a	FR1	0	R1080E
2106.362	10.427	2132920	TRIAL	n/a	n/a	n/a	-999	13	[0, 0, 0]	n/a	FR1	0	R1080E
2116.789	0.008	2143347	COUNTDOWN_END	n/a	n/a	n/a	-999	13	[0, 0, 0]	n/a	FR1	0	R1080E
2116.797	1.6	2143355	ORIENT	n/a	n/a	n/a	-999	13	[0, 0, 0]	n/a	FR1	0	R1080E
2119.38	1.6	2145938	WORD	n/a	wordpools/wordpool_EN.txt	WOLF	1	13	[0, 0, 0]	n/a	FR1	0	R1080E
2121.764	1.6	2148322	WORD	n/a	wordpools/wordpool_EN.txt	SHEEP	2	13	[0, 0, 0]	n/a	FR1	0	R1080E
2124.182	1.6	2150740	WORD	n/a	wordpools/wordpool_EN.txt	RUG	3	13	[0, 0, 0]	n/a	FR1	0	R1080E
2126.565	1.6	2153122	WORD	n/a	wordpools/wordpool_EN.txt	SPARK	4	13	[0, 0, 0]	n/a	FR1	0	R1080E
2129.15	1.6	2155707	WORD	n/a	wordpools/wordpool_EN.txt	SUN	5	13	[0, 0, 0]	n/a	FR1	0	R1080E
2131.616	1.6	2158173	WORD	n/a	wordpools/wordpool_EN.txt	CONE	6	13	[0, 0, 0]	n/a	FR1	0	R1080E
2134.167	1.6	2160724	WORD	n/a	wordpools/wordpool_EN.txt	ICE	7	13	[0, 0, 0]	n/a	FR1	0	R1080E
2136.717	1.6	2163274	WORD	n/a	wordpools/wordpool_EN.txt	WHALE	8	13	[0, 0, 0]	n/a	FR1	0	R1080E
2139.168	1.6	2165725	WORD	n/a	wordpools/wordpool_EN.txt	NAIL	9	13	[0, 0, 0]	n/a	FR1	0	R1080E
2141.584	1.6	2168141	WORD	n/a	wordpools/wordpool_EN.txt	CLIFF	10	13	[0, 0, 0]	n/a	FR1	0	R1080E
2144.152	1.6	2170708	WORD	n/a	wordpools/wordpool_EN.txt	JEEP	11	13	[0, 0, 0]	n/a	FR1	0	R1080E
2146.718	1.6	2173274	WORD	n/a	wordpools/wordpool_EN.txt	CROW	12	13	[0, 0, 0]	n/a	FR1	0	R1080E
2148.319	0.001	2174875	DISTRACT_START	n/a	n/a	n/a	-999	13	[0, 0, 0]	n/a	FR1	0	R1080E
2148.32	0.016	2174876	START	n/a	n/a	n/a	-999	13	[-999, -999, -999]	n/a	FR1	0	R1080E
2148.336	11.168	2174892	PROB	11.142	n/a	n/a	-999	13	[6, 9, 7]	22.0	FR1	0	R1080E
2159.504	11.75	2186060	PROB	11.75	n/a	n/a	-999	13	[7, 7, 8]	22.0	FR1	0	R1080E
2171.254	0.003	2197809	STOP	n/a	n/a	n/a	-999	13	[-999, -999, -999]	n/a	FR1	0	R1080E
2171.257	1.216	2197812	DISTRACT_END	n/a	n/a	n/a	-999	13	[0, 0, 0]	n/a	FR1	0	R1080E
2172.473	2.434	2199028	REC_START	n/a	n/a	n/a	-999	13	[0, 0, 0]	n/a	FR1	0	R1080E
2174.907	1.288	2201462	REC_WORD	2.434	n/a	WOLF	-999	13	[0, 0, 0]	n/a	FR1	0	R1080E
2176.195	1.443	2202750	REC_WORD	3.722	n/a	SHEEP	-999	13	[0, 0, 0]	n/a	FR1	0	R1080E
2177.638	6.071	2204193	REC_WORD	5.165	n/a	RUG	-999	13	[0, 0, 0]	n/a	FR1	0	R1080E
2183.709	1.294	2210263	REC_WORD	11.236	n/a	CLIFF	-999	13	[0, 0, 0]	n/a	FR1	0	R1080E
2185.003	3.928	2211557	REC_WORD	12.53	n/a	WHALE	-999	13	[0, 0, 0]	n/a	FR1	0	R1080E
2188.931	1.15	2215485	REC_WORD	16.458	n/a	SPARK	-999	13	[0, 0, 0]	n/a	FR1	0	R1080E
2190.081	12.406	2216635	REC_WORD	17.608	n/a	SUN	-999	13	[0, 0, 0]	n/a	FR1	0	R1080E
2202.487	22.178	2229040	REC_END	n/a	n/a	n/a	-999	13	[0, 0, 0]	n/a	FR1	0	R1080E
2224.665	10.0	2251217	COUNTDOWN_START	n/a	n/a	n/a	-999	14	[0, 0, 0]	n/a	FR1	0	R1080E
2224.666	10.427	2251218	TRIAL	n/a	n/a	n/a	-999	14	[0, 0, 0]	n/a	FR1	0	R1080E
2235.093	0.008	2261645	COUNTDOWN_END	n/a	n/a	n/a	-999	14	[0, 0, 0]	n/a	FR1	0	R1080E
2235.101	1.6	2261653	ORIENT	n/a	n/a	n/a	-999	14	[0, 0, 0]	n/a	FR1	0	R1080E
2237.534	1.6	2264085	WORD	n/a	wordpools/wordpool_EN.txt	RAIN	1	14	[0, 0, 0]	n/a	FR1	0	R1080E
2240.051	1.6	2266602	WORD	n/a	wordpools/wordpool_EN.txt	SKI	2	14	[0, 0, 0]	n/a	FR1	0	R1080E
2242.435	1.6	2268986	WORD	n/a	wordpools/wordpool_EN.txt	DRUM	3	14	[0, 0, 0]	n/a	FR1	0	R1080E
2244.836	1.6	2271387	WORD	n/a	wordpools/wordpool_EN.txt	CAR	4	14	[0, 0, 0]	n/a	FR1	0	R1080E
2247.22	1.6	2273771	WORD	n/a	wordpools/wordpool_EN.txt	CROWN	5	14	[0, 0, 0]	n/a	FR1	0	R1080E
2249.72	1.6	2276271	WORD	n/a	wordpools/wordpool_EN.txt	STAIR	6	14	[0, 0, 0]	n/a	FR1	0	R1080E
2252.104	1.6	2278655	WORD	n/a	wordpools/wordpool_EN.txt	KEY	7	14	[0, 0, 0]	n/a	FR1	0	R1080E
2254.487	1.6	2281037	WORD	n/a	wordpools/wordpool_EN.txt	DOOR	8	14	[0, 0, 0]	n/a	FR1	0	R1080E
2257.038	1.6	2283588	WORD	n/a	wordpools/wordpool_EN.txt	CHIEF	9	14	[0, 0, 0]	n/a	FR1	0	R1080E
2259.655	1.6	2286205	WORD	n/a	wordpools/wordpool_EN.txt	WAVE	10	14	[0, 0, 0]	n/a	FR1	0	R1080E
2262.039	1.6	2288589	WORD	n/a	wordpools/wordpool_EN.txt	TOY	11	14	[0, 0, 0]	n/a	FR1	0	R1080E
2264.472	1.6	2291022	WORD	n/a	wordpools/wordpool_EN.txt	BLOOM	12	14	[0, 0, 0]	n/a	FR1	0	R1080E
2266.089	0.001	2292639	DISTRACT_START	n/a	n/a	n/a	-999	14	[0, 0, 0]	n/a	FR1	0	R1080E
2266.09	0.016	2292640	START	n/a	n/a	n/a	-999	14	[-999, -999, -999]	n/a	FR1	0	R1080E
2266.106	5.219	2292656	PROB	5.193	n/a	n/a	-999	14	[8, 1, 1]	10.0	FR1	0	R1080E
2271.325	4.133	2297875	PROB	4.102	n/a	n/a	-999	14	[9, 1, 2]	12.0	FR1	0	R1080E
2275.458	8.551	2302007	PROB	8.516	n/a	n/a	-999	14	[9, 9, 3]	15.0	FR1	0	R1080E
2284.009	19.292	2310558	PROB	19.292	n/a	n/a	-999	14	[9, 9, 9]	26.0	FR1	0	R1080E
2303.301	0.013	2329849	STOP	n/a	n/a	n/a	-999	14	[-999, -999, -999]	n/a	FR1	0	R1080E
2303.314	1.133	2329862	DISTRACT_END	n/a	n/a	n/a	-999	14	[0, 0, 0]	n/a	FR1	0	R1080E
2304.447	6.977	2330995	REC_START	n/a	n/a	n/a	-999	14	[0, 0, 0]	n/a	FR1	0	R1080E
2311.424	0.729	2337971	REC_WORD	6.977	n/a	DOOR	-999	14	[0, 0, 0]	n/a	FR1	0	R1080E
2312.153	2.8	2338700	REC_WORD	7.706	n/a	KEY	-999	14	[0, 0, 0]	n/a	FR1	0	R1080E
2314.953	19.502	2341500	REC_WORD	10.506	n/a	STAIR	-999	14	[0, 0, 0]	n/a	FR1	0	R1080E
2334.455	43.705	2361001	REC_END	n/a	n/a	n/a	-999	14	[0, 0, 0]	n/a	FR1	0	R1080E
2378.16	0.0	2404704	TRIAL	n/a	n/a	n/a	-999	15	[0, 0, 0]	n/a	FR1	0	R1080E
2378.16	10.0	2404704	COUNTDOWN_START	n/a	n/a	n/a	-999	15	[0, 0, 0]	n/a	FR1	0	R1080E
2388.588	0.006	2415131	COUNTDOWN_END	n/a	n/a	n/a	-999	15	[0, 0, 0]	n/a	FR1	0	R1080E
2388.594	1.6	2415137	ORIENT	n/a	n/a	n/a	-999	15	[0, 0, 0]	n/a	FR1	0	R1080E
2391.196	1.6	2417739	WORD	n/a	wordpools/wordpool_EN.txt	SEAT	1	15	[0, 0, 0]	n/a	FR1	0	R1080E
2393.662	1.6	2420205	WORD	n/a	wordpools/wordpool_EN.txt	ROOF	2	15	[0, 0, 0]	n/a	FR1	0	R1080E
2396.263	1.6	2422806	WORD	n/a	wordpools/wordpool_EN.txt	HAND	3	15	[0, 0, 0]	n/a	FR1	0	R1080E
2398.779	1.6	2425322	WORD	n/a	wordpools/wordpool_EN.txt	BADGE	4	15	[0, 0, 0]	n/a	FR1	0	R1080E
2401.413	1.6	2427955	WORD	n/a	wordpools/wordpool_EN.txt	DIME	5	15	[0, 0, 0]	n/a	FR1	0	R1080E
2403.947	1.6	2430489	WORD	n/a	wordpools/wordpool_EN.txt	MAT	6	15	[0, 0, 0]	n/a	FR1	0	R1080E
2406.381	1.6	2432923	WORD	n/a	wordpools/wordpool_EN.txt	STICK	7	15	[0, 0, 0]	n/a	FR1	0	R1080E
2408.781	1.6	2435323	WORD	n/a	wordpools/wordpool_EN.txt	KITE	8	15	[0, 0, 0]	n/a	FR1	0	R1080E
2411.398	1.6	2437940	WORD	n/a	wordpools/wordpool_EN.txt	SMILE	9	15	[0, 0, 0]	n/a	FR1	0	R1080E
2413.798	1.6	2440340	WORD	n/a	wordpools/wordpool_EN.txt	SCHOOL	10	15	[0, 0, 0]	n/a	FR1	0	R1080E
2416.283	1.6	2442825	WORD	n/a	wordpools/wordpool_EN.txt	CANE	11	15	[0, 0, 0]	n/a	FR1	0	R1080E
2418.833	1.6	2445375	WORD	n/a	wordpools/wordpool_EN.txt	COUCH	12	15	[0, 0, 0]	n/a	FR1	0	R1080E
2420.45	0.0	2446991	DISTRACT_START	n/a	n/a	n/a	-999	15	[0, 0, 0]	n/a	FR1	0	R1080E
2420.45	0.016	2446991	START	n/a	n/a	n/a	-999	15	[-999, -999, -999]	n/a	FR1	0	R1080E
2420.466	16.603	2447007	PROB	16.58	n/a	n/a	-999	15	[4, 3, 4]	11.0	FR1	0	R1080E
2437.069	6.624	2463610	PROB	6.624	n/a	n/a	-999	15	[4, 7, 7]	18.0	FR1	0	R1080E
2443.693	0.011	2470233	STOP	n/a	n/a	n/a	-999	15	[-999, -999, -999]	n/a	FR1	0	R1080E
2443.704	1.051	2470244	DISTRACT_END	n/a	n/a	n/a	-999	15	[0, 0, 0]	n/a	FR1	0	R1080E
2444.755	30.0	2471295	REC_START	n/a	n/a	n/a	-999	15	[0, 0, 0]	n/a	FR1	0	R1080E
2474.755	0.009	2501294	REC_WORD_VV	30.0	n/a	<>	-999	15	[0, 0, 0]	n/a	FR1	0	R1080E
2474.764	78.142	2501303	REC_END	n/a	n/a	n/a	-999	15	[0, 0, 0]	n/a	FR1	0	R1080E
2552.906	0.0	-1	TRIAL	n/a	n/a	n/a	-999	16	[0, 0, 0]	n/a	FR1	0	R1080E
2552.906	10.0	-1	COUNTDOWN_START	n/a	n/a	n/a	-999	16	[0, 0, 0]	n/a	FR1	0	R1080E
4023.535	0.0	-1	SESSION_SKIPPED	n/a	n/a	n/a	-999	16	[0, 0, 0]	n/a	FR1	0	R1080E
