onset	duration	sample	trial_type	response_time	stim_file	item_name	serialpos	list	test	answer	experiment	session	subject
0.0	30.395	152094	SESS_START	n/a	n/a	n/a	-999	-999	[0, 0, 0]	n/a	FR1	0	R1063C
30.395	10.0	167290	COUNTDOWN_START	n/a	n/a	n/a	-999	-999	[0, 0, 0]	n/a	FR1	0	R1063C
40.823	3.742	172503	COUNTDOWN_END	n/a	n/a	n/a	-999	-999	[0, 0, 0]	n/a	FR1	0	R1063C
44.565	1.6	174374	PRACTICE_WORD	n/a	n/a	WAGON	1	-1	[0, 0, 0]	n/a	FR1	0	R1063C
47.065	1.6	175624	PRACTICE_WORD	n/a	n/a	CAMEL	2	-1	[0, 0, 0]	n/a	FR1	0	R1063C
49.466	1.6	176824	PRACTICE_WORD	n/a	n/a	ATTIC	3	-1	[0, 0, 0]	n/a	FR1	0	R1063C
52.066	1.6	178124	PRACTICE_WORD	n/a	n/a	COTTON	4	-1	[0, 0, 0]	n/a	FR1	0	R1063C
54.5	1.6	179341	PRACTICE_WORD	n/a	n/a	BEAM	5	-1	[0, 0, 0]	n/a	FR1	0	R1063C
56.901	1.6	180542	PRACTICE_WORD	n/a	n/a	RING	6	-1	[0, 0, 0]	n/a	FR1	0	R1063C
59.284	1.6	181733	PRACTICE_WORD	n/a	n/a	IRON	7	-1	[0, 0, 0]	n/a	FR1	0	R1063C
61.852	1.6	183017	PRACTICE_WORD	n/a	n/a	WATCH	8	-1	[0, 0, 0]	n/a	FR1	0	R1063C
64.318	1.6	184250	PRACTICE_WORD	n/a	n/a	CHEST	9	-1	[0, 0, 0]	n/a	FR1	0	R1063C
66.87	1.6	185526	PRACTICE_WORD	n/a	n/a	FLOOD	10	-1	[0, 0, 0]	n/a	FR1	0	R1063C
69.452	1.6	186817	PRACTICE_WORD	n/a	n/a	RHINO	11	-1	[0, 0, 0]	n/a	FR1	0	R1063C
71.871	1.6	188026	PRACTICE_WORD	n/a	n/a	TONGUE	12	-1	[0, 0, 0]	n/a	FR1	0	R1063C
73.487	0.0	188834	PRACTICE_DISTRACT_START	n/a	n/a	n/a	-999	-1	[0, 0, 0]	n/a	FR1	0	R1063C
73.487	0.016	188834	START	n/a	n/a	n/a	-999	-1	[-999, -999, -999]	n/a	FR1	0	R1063C
73.503	8.585	188842	PROB	8.558	n/a	n/a	-999	-1	[2, 2, 4]	8.0	FR1	0	R1063C
82.088	5.551	193134	PROB	5.517	n/a	n/a	-999	-1	[1, 8, 9]	18.0	FR1	0	R1063C
87.639	2.884	195909	PROB	2.854	n/a	n/a	-999	-1	[6, 1, 1]	8.0	FR1	0	R1063C
90.523	16.331	197351	PROB	16.331	n/a	n/a	-999	-1	[4, 8, 5]	17.0	FR1	0	R1063C
106.854	0.007	205516	STOP	n/a	n/a	n/a	-999	-1	[-999, -999, -999]	n/a	FR1	0	R1063C
106.861	0.601	205520	PRACTICE_DISTRACT_END	n/a	n/a	n/a	-999	-1	[0, 0, 0]	n/a	FR1	0	R1063C
107.462	30.515	205820	PRACTICE_REC_START	n/a	n/a	n/a	-999	-1	[0, 0, 0]	n/a	FR1	0	R1063C
137.977	17.91	221076	PRACTICE_REC_END	n/a	n/a	n/a	-999	-1	[0, 0, 0]	n/a	FR1	0	R1063C
155.887	0.0	230030	TRIAL	n/a	n/a	n/a	-999	1	[0, 0, 0]	n/a	FR1	0	R1063C
155.887	10.0	230030	COUNTDOWN_START	n/a	n/a	n/a	-999	1	[0, 0, 0]	n/a	FR1	0	R1063C
166.315	0.006	235244	COUNTDOWN_END	n/a	n/a	n/a	-999	1	[0, 0, 0]	n/a	FR1	0	R1063C
166.321	1.6	235247	ORIENT	n/a	n/a	n/a	-999	1	[0, 0, 0]	n/a	FR1	0	R1063C
168.738	1.6	236455	WORD	n/a	wordpools/wordpool_EN.txt	DUCK	1	1	[0, 0, 0]	n/a	FR1	0	R1063C
171.355	1.6	237764	WORD	n/a	wordpools/wordpool_EN.txt	ZOO	2	1	[0, 0, 0]	n/a	FR1	0	R1063C
173.939	1.6	239056	WORD	n/a	wordpools/wordpool_EN.txt	SOUP	3	1	[0, 0, 0]	n/a	FR1	0	R1063C
176.389	1.6	240280	WORD	n/a	wordpools/wordpool_EN.txt	CLAY	4	1	[0, 0, 0]	n/a	FR1	0	R1063C
178.791	1.6	241481	WORD	n/a	wordpools/wordpool_EN.txt	MOUSE	5	1	[0, 0, 0]	n/a	FR1	0	R1063C
181.224	1.6	242698	WORD	n/a	wordpools/wordpool_EN.txt	SKUNK	6	1	[0, 0, 0]	n/a	FR1	0	R1063C
183.691	1.6	243931	WORD	n/a	wordpools/wordpool_EN.txt	ANT	7	1	[0, 0, 0]	n/a	FR1	0	R1063C
186.091	1.6	245131	WORD	n/a	wordpools/wordpool_EN.txt	MOOSE	8	1	[0, 0, 0]	n/a	FR1	0	R1063C
188.642	1.6	246406	WORD	n/a	wordpools/wordpool_EN.txt	ROCK	9	1	[0, 0, 0]	n/a	FR1	0	R1063C
191.176	1.6	247673	WORD	n/a	wordpools/wordpool_EN.txt	SPONGE	10	1	[0, 0, 0]	n/a	FR1	0	R1063C
193.576	1.6	248873	WORD	n/a	wordpools/wordpool_EN.txt	TENT	11	1	[0, 0, 0]	n/a	FR1	0	R1063C
195.993	1.6	250082	WORD	n/a	wordpools/wordpool_EN.txt	SNAKE	12	1	[0, 0, 0]	n/a	FR1	0	R1063C
197.61	0.001	250890	DISTRACT_START	n/a	n/a	n/a	-999	1	[0, 0, 0]	n/a	FR1	0	R1063C
197.611	0.016	250891	START	n/a	n/a	n/a	-999	1	[-999, -999, -999]	n/a	FR1	0	R1063C
197.627	4.834	250899	PROB	4.81	n/a	n/a	-999	1	[7, 1, 8]	16.0	FR1	0	R1063C
202.461	4.718	253315	PROB	4.688	n/a	n/a	-999	1	[3, 9, 9]	21.0	FR1	0	R1063C
207.179	10.954	255674	PROB	10.954	n/a	n/a	-999	1	[8, 2, 9]	19.0	FR1	0	R1063C
218.133	0.014	261151	STOP	n/a	n/a	n/a	-999	1	[-999, -999, -999]	n/a	FR1	0	R1063C
218.147	1.168	261158	DISTRACT_END	n/a	n/a	n/a	-999	1	[0, 0, 0]	n/a	FR1	0	R1063C
219.315	2.127	261742	REC_START	n/a	n/a	n/a	-999	1	[0, 0, 0]	n/a	FR1	0	R1063C
221.442	2.492	262805	REC_WORD	2.127	n/a	ZOO	2	1	[0, 0, 0]	n/a	FR1	0	R1063C
223.934	0.77	264051	REC_WORD	4.619	n/a	DUCK	1	1	[0, 0, 0]	n/a	FR1	0	R1063C
224.704	2.904	264436	REC_WORD_VV	5.389	n/a	<>	-999	1	[0, 0, 0]	n/a	FR1	0	R1063C
227.608	1.648	265888	REC_WORD_VV	8.293	n/a	<>	-999	1	[0, 0, 0]	n/a	FR1	0	R1063C
229.256	14.249	266712	REC_WORD	9.941	n/a	SOUP	3	1	[0, 0, 0]	n/a	FR1	0	R1063C
243.505	0.285	273836	REC_WORD_VV	24.19	n/a	<>	-999	1	[0, 0, 0]	n/a	FR1	0	R1063C
243.79	5.536	273978	REC_WORD_VV	24.475	n/a	<>	-999	1	[0, 0, 0]	n/a	FR1	0	R1063C
249.326	3.928	276746	REC_END	n/a	n/a	n/a	-999	1	[0, 0, 0]	n/a	FR1	0	R1063C
253.254	10.0	278710	COUNTDOWN_START	n/a	n/a	n/a	-999	2	[0, 0, 0]	n/a	FR1	0	R1063C
253.254	10.428	278710	TRIAL	n/a	n/a	n/a	-999	2	[0, 0, 0]	n/a	FR1	0	R1063C
263.682	0.007	283923	COUNTDOWN_END	n/a	n/a	n/a	-999	2	[0, 0, 0]	n/a	FR1	0	R1063C
263.689	1.6	283927	ORIENT	n/a	n/a	n/a	-999	2	[0, 0, 0]	n/a	FR1	0	R1063C
266.306	1.6	285235	WORD	n/a	wordpools/wordpool_EN.txt	FOOT	1	2	[0, 0, 0]	n/a	FR1	0	R1063C
268.707	1.6	286435	WORD	n/a	wordpools/wordpool_EN.txt	HORSE	2	2	[0, 0, 0]	n/a	FR1	0	R1063C
271.324	1.6	287744	WORD	n/a	wordpools/wordpool_EN.txt	CALF	3	2	[0, 0, 0]	n/a	FR1	0	R1063C
273.892	1.6	289028	WORD	n/a	wordpools/wordpool_EN.txt	BAG	4	2	[0, 0, 0]	n/a	FR1	0	R1063C
276.308	1.6	290236	WORD	n/a	wordpools/wordpool_EN.txt	NOSE	5	2	[0, 0, 0]	n/a	FR1	0	R1063C
278.709	1.6	291436	WORD	n/a	wordpools/wordpool_EN.txt	DITCH	6	2	[0, 0, 0]	n/a	FR1	0	R1063C
281.259	1.6	292711	WORD	n/a	wordpools/wordpool_EN.txt	WAND	7	2	[0, 0, 0]	n/a	FR1	0	R1063C
283.777	1.6	293970	WORD	n/a	wordpools/wordpool_EN.txt	SHIRT	8	2	[0, 0, 0]	n/a	FR1	0	R1063C
286.344	1.6	295253	WORD	n/a	wordpools/wordpool_EN.txt	MOUTH	9	2	[0, 0, 0]	n/a	FR1	0	R1063C
288.762	1.6	296462	WORD	n/a	wordpools/wordpool_EN.txt	CHALK	10	2	[0, 0, 0]	n/a	FR1	0	R1063C
291.161	1.6	297662	WORD	n/a	wordpools/wordpool_EN.txt	SINK	11	2	[0, 0, 0]	n/a	FR1	0	R1063C
293.578	1.6	298870	WORD	n/a	wordpools/wordpool_EN.txt	MUD	12	2	[0, 0, 0]	n/a	FR1	0	R1063C
295.195	0.002	299678	DISTRACT_START	n/a	n/a	n/a	-999	2	[0, 0, 0]	n/a	FR1	0	R1063C
295.197	0.015	299679	START	n/a	n/a	n/a	-999	2	[-999, -999, -999]	n/a	FR1	0	R1063C
295.212	5.167	299687	PROB	5.145	n/a	n/a	-999	2	[3, 7, 5]	15.0	FR1	0	R1063C
300.379	3.968	302270	PROB	3.946	n/a	n/a	-999	2	[2, 5, 2]	9.0	FR1	0	R1063C
304.347	5.651	304254	PROB	5.618	n/a	n/a	-999	2	[3, 8, 1]	11.0	FR1	0	R1063C
309.998	4.467	307079	PROB	4.447	n/a	n/a	-999	2	[7, 2, 2]	11.0	FR1	0	R1063C
314.465	7.172	309313	PROB	7.172	n/a	n/a	-999	2	[3, 9, 7]	19.0	FR1	0	R1063C
321.637	0.013	312898	STOP	n/a	n/a	n/a	-999	2	[-999, -999, -999]	n/a	FR1	0	R1063C
321.65	1.101	312905	DISTRACT_END	n/a	n/a	n/a	-999	2	[0, 0, 0]	n/a	FR1	0	R1063C
322.751	1.357	313455	REC_START	n/a	n/a	n/a	-999	2	[0, 0, 0]	n/a	FR1	0	R1063C
324.108	1.553	314134	REC_WORD_VV	1.357	n/a	<>	-999	2	[0, 0, 0]	n/a	FR1	0	R1063C
325.661	2.007	314910	REC_WORD	2.91	n/a	CHALK	10	2	[0, 0, 0]	n/a	FR1	0	R1063C
327.668	1.372	315913	REC_WORD	4.917	n/a	NOSE	5	2	[0, 0, 0]	n/a	FR1	0	R1063C
329.04	2.9	316599	REC_WORD	6.289	n/a	FOOT	1	2	[0, 0, 0]	n/a	FR1	0	R1063C
331.94	4.897	318049	REC_WORD	9.189	n/a	HORSE	2	2	[0, 0, 0]	n/a	FR1	0	R1063C
336.837	3.941	320498	REC_WORD	14.086	n/a	FOOT	1	2	[0, 0, 0]	n/a	FR1	0	R1063C
340.778	1.867	322468	REC_WORD_VV	18.027	n/a	<>	-999	2	[0, 0, 0]	n/a	FR1	0	R1063C
342.645	0.781	323401	REC_WORD_VV	19.894	n/a	<>	-999	2	[0, 0, 0]	n/a	FR1	0	R1063C
343.426	2.559	323792	REC_WORD	20.675	n/a	BOOK	-999	2	[0, 0, 0]	n/a	FR1	0	R1063C
345.985	2.324	325071	REC_WORD	23.234	n/a	DITCH	6	2	[0, 0, 0]	n/a	FR1	0	R1063C
348.309	2.676	326233	REC_WORD_VV	25.558	n/a	<>	-999	2	[0, 0, 0]	n/a	FR1	0	R1063C
350.985	1.778	327571	REC_WORD_VV	28.234	n/a	<>	-999	2	[0, 0, 0]	n/a	FR1	0	R1063C
352.763	3.277	328460	REC_END	n/a	n/a	n/a	-999	2	[0, 0, 0]	n/a	FR1	0	R1063C
356.04	0.0	330098	TRIAL	n/a	n/a	n/a	-999	3	[0, 0, 0]	n/a	FR1	0	R1063C
356.04	10.0	330098	COUNTDOWN_START	n/a	n/a	n/a	-999	3	[0, 0, 0]	n/a	FR1	0	R1063C
366.468	0.007	335312	COUNTDOWN_END	n/a	n/a	n/a	-999	3	[0, 0, 0]	n/a	FR1	0	R1063C
366.475	1.6	335315	ORIENT	n/a	n/a	n/a	-999	3	[0, 0, 0]	n/a	FR1	0	R1063C
368.942	1.6	336549	WORD	n/a	wordpools/wordpool_EN.txt	BLOOM	1	3	[0, 0, 0]	n/a	FR1	0	R1063C
371.443	1.6	337799	WORD	n/a	wordpools/wordpool_EN.txt	BROOM	2	3	[0, 0, 0]	n/a	FR1	0	R1063C
374.01	1.6	339082	WORD	n/a	wordpools/wordpool_EN.txt	BRANCH	3	3	[0, 0, 0]	n/a	FR1	0	R1063C
376.494	1.6	340324	WORD	n/a	wordpools/wordpool_EN.txt	ROAD	4	3	[0, 0, 0]	n/a	FR1	0	R1063C
378.944	1.6	341549	WORD	n/a	wordpools/wordpool_EN.txt	OAK	5	3	[0, 0, 0]	n/a	FR1	0	R1063C
381.328	1.6	342741	WORD	n/a	wordpools/wordpool_EN.txt	GRASS	6	3	[0, 0, 0]	n/a	FR1	0	R1063C
383.796	1.6	343975	WORD	n/a	wordpools/wordpool_EN.txt	VINE	7	3	[0, 0, 0]	n/a	FR1	0	R1063C
386.262	1.6	345208	WORD	n/a	wordpools/wordpool_EN.txt	STRAW	8	3	[0, 0, 0]	n/a	FR1	0	R1063C
388.814	1.6	346484	WORD	n/a	wordpools/wordpool_EN.txt	ROPE	9	3	[0, 0, 0]	n/a	FR1	0	R1063C
391.313	1.6	347733	WORD	n/a	wordpools/wordpool_EN.txt	PANTS	10	3	[0, 0, 0]	n/a	FR1	0	R1063C
393.781	1.6	348967	WORD	n/a	wordpools/wordpool_EN.txt	PEACH	11	3	[0, 0, 0]	n/a	FR1	0	R1063C
396.414	1.6	350283	WORD	n/a	wordpools/wordpool_EN.txt	WEED	12	3	[0, 0, 0]	n/a	FR1	0	R1063C
398.031	0.001	351092	DISTRACT_START	n/a	n/a	n/a	-999	3	[0, 0, 0]	n/a	FR1	0	R1063C
398.032	0.016	351092	START	n/a	n/a	n/a	-999	3	[-999, -999, -999]	n/a	FR1	0	R1063C
398.048	4.184	351100	PROB	4.157	n/a	n/a	-999	3	[5, 1, 2]	8.0	FR1	0	R1063C
402.232	4.834	353192	PROB	4.813	n/a	n/a	-999	3	[5, 8, 8]	21.0	FR1	0	R1063C
407.066	4.518	355609	PROB	4.491	n/a	n/a	-999	3	[7, 3, 5]	15.0	FR1	0	R1063C
411.584	7.214	357868	PROB	7.214	n/a	n/a	-999	3	[8, 9, 3]	20.0	FR1	0	R1063C
418.798	0.005	361474	STOP	n/a	n/a	n/a	-999	3	[-999, -999, -999]	n/a	FR1	0	R1063C
418.803	1.133	361477	DISTRACT_END	n/a	n/a	n/a	-999	3	[0, 0, 0]	n/a	FR1	0	R1063C
419.936	2.55	362043	REC_START	n/a	n/a	n/a	-999	3	[0, 0, 0]	n/a	FR1	0	R1063C
422.486	2.499	363318	REC_WORD_VV	2.55	n/a	<>	-999	3	[0, 0, 0]	n/a	FR1	0	R1063C
424.985	5.204	364568	REC_WORD_VV	5.049	n/a	<>	-999	3	[0, 0, 0]	n/a	FR1	0	R1063C
430.189	8.818	367169	REC_WORD_VV	10.253	n/a	<>	-999	3	[0, 0, 0]	n/a	FR1	0	R1063C
439.007	6.809	371578	REC_WORD	19.071	n/a	BOOK	-999	3	[0, 0, 0]	n/a	FR1	0	R1063C
445.816	4.13	374982	REC_WORD	25.88	n/a	BOOK	-999	3	[0, 0, 0]	n/a	FR1	0	R1063C
449.946	3.712	377047	REC_END	n/a	n/a	n/a	-999	3	[0, 0, 0]	n/a	FR1	0	R1063C
453.658	10.0	378903	COUNTDOWN_START	n/a	n/a	n/a	-999	4	[0, 0, 0]	n/a	FR1	0	R1063C
453.659	10.427	378903	TRIAL	n/a	n/a	n/a	-999	4	[0, 0, 0]	n/a	FR1	0	R1063C
464.086	0.008	384117	COUNTDOWN_END	n/a	n/a	n/a	-999	4	[0, 0, 0]	n/a	FR1	0	R1063C
464.094	1.6	384121	ORIENT	n/a	n/a	n/a	-999	4	[0, 0, 0]	n/a	FR1	0	R1063C
466.527	1.6	385337	WORD	n/a	wordpools/wordpool_EN.txt	PASTE	1	4	[0, 0, 0]	n/a	FR1	0	R1063C
469.028	1.6	386587	WORD	n/a	wordpools/wordpool_EN.txt	PEAR	2	4	[0, 0, 0]	n/a	FR1	0	R1063C
471.562	1.6	387854	WORD	n/a	wordpools/wordpool_EN.txt	LEG	3	4	[0, 0, 0]	n/a	FR1	0	R1063C
473.962	1.6	389054	WORD	n/a	wordpools/wordpool_EN.txt	APE	4	4	[0, 0, 0]	n/a	FR1	0	R1063C
476.496	1.6	390321	WORD	n/a	wordpools/wordpool_EN.txt	CONE	5	4	[0, 0, 0]	n/a	FR1	0	R1063C
479.096	1.6	391621	WORD	n/a	wordpools/wordpool_EN.txt	SEED	6	4	[0, 0, 0]	n/a	FR1	0	R1063C
481.48	1.6	392813	WORD	n/a	wordpools/wordpool_EN.txt	CLOTH	7	4	[0, 0, 0]	n/a	FR1	0	R1063C
483.947	1.6	394046	WORD	n/a	wordpools/wordpool_EN.txt	LEAF	8	4	[0, 0, 0]	n/a	FR1	0	R1063C
486.348	1.6	395247	WORD	n/a	wordpools/wordpool_EN.txt	RAT	9	4	[0, 0, 0]	n/a	FR1	0	R1063C
488.766	1.6	396455	WORD	n/a	wordpools/wordpool_EN.txt	WING	10	4	[0, 0, 0]	n/a	FR1	0	R1063C
491.265	1.6	397705	WORD	n/a	wordpools/wordpool_EN.txt	CHIEF	11	4	[0, 0, 0]	n/a	FR1	0	R1063C
493.699	1.6	398922	WORD	n/a	wordpools/wordpool_EN.txt	PLANT	12	4	[0, 0, 0]	n/a	FR1	0	R1063C
495.316	0.001	399730	DISTRACT_START	n/a	n/a	n/a	-999	4	[0, 0, 0]	n/a	FR1	0	R1063C
495.317	0.016	399731	START	n/a	n/a	n/a	-999	4	[-999, -999, -999]	n/a	FR1	0	R1063C
495.333	5.751	399739	PROB	5.728	n/a	n/a	-999	4	[6, 4, 7]	17.0	FR1	0	R1063C
501.084	5.334	402614	PROB	5.313	n/a	n/a	-999	4	[2, 4, 8]	14.0	FR1	0	R1063C
506.418	6.486	405281	PROB	6.452	n/a	n/a	-999	4	[9, 9, 9]	27.0	FR1	0	R1063C
512.904	4.213	408523	PROB	4.213	n/a	n/a	-999	4	[7, 1, 9]	17.0	FR1	0	R1063C
517.117	0.003	410630	STOP	n/a	n/a	n/a	-999	4	[-999, -999, -999]	n/a	FR1	0	R1063C
517.12	1.084	410631	DISTRACT_END	n/a	n/a	n/a	-999	4	[0, 0, 0]	n/a	FR1	0	R1063C
518.204	1.529	411173	REC_START	n/a	n/a	n/a	-999	4	[0, 0, 0]	n/a	FR1	0	R1063C
519.733	1.124	411938	REC_WORD	1.529	n/a	FACE	-999	4	[0, 0, 0]	n/a	FR1	0	R1063C
520.857	1.911	412500	REC_WORD	2.653	n/a	PEAR	2	4	[0, 0, 0]	n/a	FR1	0	R1063C
522.768	1.72	413455	REC_WORD	4.564	n/a	LEG	3	4	[0, 0, 0]	n/a	FR1	0	R1063C
524.488	4.268	414315	REC_WORD_VV	6.284	n/a	<>	-999	4	[0, 0, 0]	n/a	FR1	0	R1063C
528.756	1.0	416449	REC_WORD_VV	10.552	n/a	<>	-999	4	[0, 0, 0]	n/a	FR1	0	R1063C
529.756	2.112	416949	REC_WORD_VV	11.552	n/a	<>	-999	4	[0, 0, 0]	n/a	FR1	0	R1063C
531.868	1.0	418005	REC_WORD_VV	13.664	n/a	<>	-999	4	[0, 0, 0]	n/a	FR1	0	R1063C
532.868	4.436	418505	REC_WORD_VV	14.664	n/a	<>	-999	4	[0, 0, 0]	n/a	FR1	0	R1063C
537.304	10.911	420722	REC_WORD_VV	19.1	n/a	<>	-999	4	[0, 0, 0]	n/a	FR1	0	R1063C
548.215	2.295	426177	REC_END	n/a	n/a	n/a	-999	4	[0, 0, 0]	n/a	FR1	0	R1063C
550.51	0.0	427325	TRIAL	n/a	n/a	n/a	-999	5	[0, 0, 0]	n/a	FR1	0	R1063C
550.51	10.0	427325	COUNTDOWN_START	n/a	n/a	n/a	-999	5	[0, 0, 0]	n/a	FR1	0	R1063C
560.938	0.007	432538	COUNTDOWN_END	n/a	n/a	n/a	-999	5	[0, 0, 0]	n/a	FR1	0	R1063C
560.945	1.6	432542	ORIENT	n/a	n/a	n/a	-999	5	[0, 0, 0]	n/a	FR1	0	R1063C
563.496	1.6	433817	WORD	n/a	wordpools/wordpool_EN.txt	MAIL	1	5	[0, 0, 0]	n/a	FR1	0	R1063C
566.079	1.6	435109	WORD	n/a	wordpools/wordpool_EN.txt	BANK	2	5	[0, 0, 0]	n/a	FR1	0	R1063C
568.463	1.6	436300	WORD	n/a	wordpools/wordpool_EN.txt	STORE	3	5	[0, 0, 0]	n/a	FR1	0	R1063C
571.047	1.6	437592	WORD	n/a	wordpools/wordpool_EN.txt	LAWN	4	5	[0, 0, 0]	n/a	FR1	0	R1063C
573.564	1.6	438851	WORD	n/a	wordpools/wordpool_EN.txt	PHONE	5	5	[0, 0, 0]	n/a	FR1	0	R1063C
576.131	1.6	440134	WORD	n/a	wordpools/wordpool_EN.txt	KEY	6	5	[0, 0, 0]	n/a	FR1	0	R1063C
578.632	1.6	441385	WORD	n/a	wordpools/wordpool_EN.txt	FUDGE	7	5	[0, 0, 0]	n/a	FR1	0	R1063C
581.032	1.6	442584	WORD	n/a	wordpools/wordpool_EN.txt	CASH	8	5	[0, 0, 0]	n/a	FR1	0	R1063C
583.549	1.6	443843	WORD	n/a	wordpools/wordpool_EN.txt	WALL	9	5	[0, 0, 0]	n/a	FR1	0	R1063C
586.05	1.6	445093	WORD	n/a	wordpools/wordpool_EN.txt	MILK	10	5	[0, 0, 0]	n/a	FR1	0	R1063C
588.567	1.6	446352	WORD	n/a	wordpools/wordpool_EN.txt	FOG	11	5	[0, 0, 0]	n/a	FR1	0	R1063C
591.167	1.6	447652	WORD	n/a	wordpools/wordpool_EN.txt	HEART	12	5	[0, 0, 0]	n/a	FR1	0	R1063C
592.769	0.0	448452	DISTRACT_START	n/a	n/a	n/a	-999	5	[0, 0, 0]	n/a	FR1	0	R1063C
592.769	0.016	448452	START	n/a	n/a	n/a	-999	5	[-999, -999, -999]	n/a	FR1	0	R1063C
592.785	6.051	448460	PROB	6.029	n/a	n/a	-999	5	[5, 2, 6]	13.0	FR1	0	R1063C
598.836	5.234	451486	PROB	5.209	n/a	n/a	-999	5	[8, 5, 1]	14.0	FR1	0	R1063C
604.07	4.251	454102	PROB	4.215	n/a	n/a	-999	5	[6, 8, 2]	16.0	FR1	0	R1063C
608.321	4.1	456228	PROB	4.068	n/a	n/a	-999	5	[1, 3, 2]	6.0	FR1	0	R1063C
612.421	5.168	458278	PROB	5.168	n/a	n/a	-999	5	[9, 3, 8]	20.0	FR1	0	R1063C
617.589	0.017	460861	STOP	n/a	n/a	n/a	-999	5	[-999, -999, -999]	n/a	FR1	0	R1063C
617.606	1.134	460870	DISTRACT_END	n/a	n/a	n/a	-999	5	[0, 0, 0]	n/a	FR1	0	R1063C
618.74	1.475	461437	REC_START	n/a	n/a	n/a	-999	5	[0, 0, 0]	n/a	FR1	0	R1063C
620.215	0.72	462174	REC_WORD	1.475	n/a	LAWN	4	5	[0, 0, 0]	n/a	FR1	0	R1063C
620.935	1.648	462534	REC_WORD	2.195	n/a	BANK	2	5	[0, 0, 0]	n/a	FR1	0	R1063C
622.583	1.912	463358	REC_WORD	3.843	n/a	CASH	8	5	[0, 0, 0]	n/a	FR1	0	R1063C
624.495	3.92	464314	REC_WORD	5.755	n/a	STORE	3	5	[0, 0, 0]	n/a	FR1	0	R1063C
628.415	1.0	466274	REC_WORD_VV	9.675	n/a	<>	-999	5	[0, 0, 0]	n/a	FR1	0	R1063C
629.415	1.0	466774	REC_WORD_VV	10.675	n/a	<>	-999	5	[0, 0, 0]	n/a	FR1	0	R1063C
630.415	3.377	467274	REC_WORD_VV	11.675	n/a	<>	-999	5	[0, 0, 0]	n/a	FR1	0	R1063C
633.792	3.752	468962	REC_WORD_VV	15.052	n/a	<>	-999	5	[0, 0, 0]	n/a	FR1	0	R1063C
637.544	1.874	470838	REC_WORD_VV	18.804	n/a	<>	-999	5	[0, 0, 0]	n/a	FR1	0	R1063C
639.418	2.934	471775	REC_WORD_VV	20.678	n/a	<>	-999	5	[0, 0, 0]	n/a	FR1	0	R1063C
642.352	1.0	473242	REC_WORD_VV	23.612	n/a	<>	-999	5	[0, 0, 0]	n/a	FR1	0	R1063C
643.352	5.398	473742	REC_WORD_VV	24.612	n/a	<>	-999	5	[0, 0, 0]	n/a	FR1	0	R1063C
648.75	5.097	476441	REC_END	n/a	n/a	n/a	-999	5	[0, 0, 0]	n/a	FR1	0	R1063C
653.847	0.0	478989	TRIAL	n/a	n/a	n/a	-999	6	[0, 0, 0]	n/a	FR1	0	R1063C
653.847	10.0	478989	COUNTDOWN_START	n/a	n/a	n/a	-999	6	[0, 0, 0]	n/a	FR1	0	R1063C
664.275	0.006	484202	COUNTDOWN_END	n/a	n/a	n/a	-999	6	[0, 0, 0]	n/a	FR1	0	R1063C
664.281	1.6	484205	ORIENT	n/a	n/a	n/a	-999	6	[0, 0, 0]	n/a	FR1	0	R1063C
666.766	1.6	485448	WORD	n/a	wordpools/wordpool_EN.txt	BALL	1	6	[0, 0, 0]	n/a	FR1	0	R1063C
669.282	1.6	486706	WORD	n/a	wordpools/wordpool_EN.txt	GLOVE	2	6	[0, 0, 0]	n/a	FR1	0	R1063C
671.884	1.6	488007	WORD	n/a	wordpools/wordpool_EN.txt	DRUM	3	6	[0, 0, 0]	n/a	FR1	0	R1063C
674.366	1.6	489247	WORD	n/a	wordpools/wordpool_EN.txt	PALM	4	6	[0, 0, 0]	n/a	FR1	0	R1063C
676.884	1.6	490506	WORD	n/a	wordpools/wordpool_EN.txt	PLATE	5	6	[0, 0, 0]	n/a	FR1	0	R1063C
679.284	1.6	491706	WORD	n/a	wordpools/wordpool_EN.txt	PRINCE	6	6	[0, 0, 0]	n/a	FR1	0	R1063C
681.734	1.6	492931	WORD	n/a	wordpools/wordpool_EN.txt	CHAIR	7	6	[0, 0, 0]	n/a	FR1	0	R1063C
684.118	1.6	494123	WORD	n/a	wordpools/wordpool_EN.txt	NET	8	6	[0, 0, 0]	n/a	FR1	0	R1063C
686.735	1.6	495431	WORD	n/a	wordpools/wordpool_EN.txt	TREE	9	6	[0, 0, 0]	n/a	FR1	0	R1063C
689.253	1.6	496690	WORD	n/a	wordpools/wordpool_EN.txt	VASE	10	6	[0, 0, 0]	n/a	FR1	0	R1063C
691.871	1.6	497999	WORD	n/a	wordpools/wordpool_EN.txt	SHARK	11	6	[0, 0, 0]	n/a	FR1	0	R1063C
694.253	1.6	499190	WORD	n/a	wordpools/wordpool_EN.txt	COIN	12	6	[0, 0, 0]	n/a	FR1	0	R1063C
695.854	0.001	499990	DISTRACT_START	n/a	n/a	n/a	-999	6	[0, 0, 0]	n/a	FR1	0	R1063C
695.855	0.016	499991	START	n/a	n/a	n/a	-999	6	[-999, -999, -999]	n/a	FR1	0	R1063C
695.871	3.55	499999	PROB	3.518	n/a	n/a	-999	6	[3, 2, 8]	13.0	FR1	0	R1063C
699.421	2.784	501774	PROB	2.76	n/a	n/a	-999	6	[1, 7, 1]	9.0	FR1	0	R1063C
702.205	2.75	503166	PROB	2.728	n/a	n/a	-999	6	[5, 5, 1]	11.0	FR1	0	R1063C
704.955	2.968	504541	PROB	2.939	n/a	n/a	-999	6	[1, 3, 8]	11.0	FR1	0	R1063C
707.923	10.386	506024	PROB	10.386	n/a	n/a	-999	6	[8, 5, 9]	24.0	FR1	0	R1063C
718.309	0.016	511217	STOP	n/a	n/a	n/a	-999	6	[-999, -999, -999]	n/a	FR1	0	R1063C
718.325	1.067	511225	DISTRACT_END	n/a	n/a	n/a	-999	6	[0, 0, 0]	n/a	FR1	0	R1063C
719.392	0.105	511758	REC_START	n/a	n/a	n/a	-999	6	[0, 0, 0]	n/a	FR1	0	R1063C
719.497	6.106	511811	REC_WORD_VV	0.105	n/a	<>	-999	6	[0, 0, 0]	n/a	FR1	0	R1063C
725.603	2.058	514864	REC_WORD_VV	6.211	n/a	<>	-999	6	[0, 0, 0]	n/a	FR1	0	R1063C
727.661	0.933	515893	REC_WORD	8.269	n/a	GLOVE	2	6	[0, 0, 0]	n/a	FR1	0	R1063C
728.594	3.004	516359	REC_WORD	9.202	n/a	HAND	-999	6	[0, 0, 0]	n/a	FR1	0	R1063C
731.598	5.623	517861	REC_WORD_VV	12.206	n/a	<>	-999	6	[0, 0, 0]	n/a	FR1	0	R1063C
737.221	3.144	520672	REC_WORD_VV	17.829	n/a	<>	-999	6	[0, 0, 0]	n/a	FR1	0	R1063C
740.365	1.552	522244	REC_WORD_VV	20.973	n/a	<>	-999	6	[0, 0, 0]	n/a	FR1	0	R1063C
741.917	0.75	523020	REC_WORD	22.525	n/a	DRUM	3	6	[0, 0, 0]	n/a	FR1	0	R1063C
742.667	6.74	523395	REC_WORD	23.275	n/a	SHARK	11	6	[0, 0, 0]	n/a	FR1	0	R1063C
749.407	2.408	526765	REC_END	n/a	n/a	n/a	-999	6	[0, 0, 0]	n/a	FR1	0	R1063C
751.815	0.0	527969	TRIAL	n/a	n/a	n/a	-999	7	[0, 0, 0]	n/a	FR1	0	R1063C
751.815	10.0	527969	COUNTDOWN_START	n/a	n/a	n/a	-999	7	[0, 0, 0]	n/a	FR1	0	R1063C
762.243	0.007	533182	COUNTDOWN_END	n/a	n/a	n/a	-999	7	[0, 0, 0]	n/a	FR1	0	R1063C
762.25	1.6	533186	ORIENT	n/a	n/a	n/a	-999	7	[0, 0, 0]	n/a	FR1	0	R1063C
764.7	1.6	534410	WORD	n/a	wordpools/wordpool_EN.txt	SUN	1	7	[0, 0, 0]	n/a	FR1	0	R1063C
767.201	1.6	535661	WORD	n/a	wordpools/wordpool_EN.txt	TOAD	2	7	[0, 0, 0]	n/a	FR1	0	R1063C
769.601	1.6	536861	WORD	n/a	wordpools/wordpool_EN.txt	SEA	3	7	[0, 0, 0]	n/a	FR1	0	R1063C
772.118	1.6	538119	WORD	n/a	wordpools/wordpool_EN.txt	SNOW	4	7	[0, 0, 0]	n/a	FR1	0	R1063C
774.635	1.6	539378	WORD	n/a	wordpools/wordpool_EN.txt	WOLF	5	7	[0, 0, 0]	n/a	FR1	0	R1063C
777.102	1.6	540611	WORD	n/a	wordpools/wordpool_EN.txt	SHIP	6	7	[0, 0, 0]	n/a	FR1	0	R1063C
779.553	1.6	541836	WORD	n/a	wordpools/wordpool_EN.txt	RIB	7	7	[0, 0, 0]	n/a	FR1	0	R1063C
782.137	1.6	543128	WORD	n/a	wordpools/wordpool_EN.txt	MOLE	8	7	[0, 0, 0]	n/a	FR1	0	R1063C
784.671	1.6	544395	WORD	n/a	wordpools/wordpool_EN.txt	MOTH	9	7	[0, 0, 0]	n/a	FR1	0	R1063C
787.221	1.6	545670	WORD	n/a	wordpools/wordpool_EN.txt	TEETH	10	7	[0, 0, 0]	n/a	FR1	0	R1063C
789.738	1.6	546928	WORD	n/a	wordpools/wordpool_EN.txt	FOX	11	7	[0, 0, 0]	n/a	FR1	0	R1063C
792.189	1.6	548154	WORD	n/a	wordpools/wordpool_EN.txt	BEAR	12	7	[0, 0, 0]	n/a	FR1	0	R1063C
793.807	0.0	548963	DISTRACT_START	n/a	n/a	n/a	-999	7	[0, 0, 0]	n/a	FR1	0	R1063C
793.807	0.016	548963	START	n/a	n/a	n/a	-999	7	[-999, -999, -999]	n/a	FR1	0	R1063C
793.823	5.051	548971	PROB	5.031	n/a	n/a	-999	7	[3, 8, 7]	18.0	FR1	0	R1063C
798.874	3.266	551496	PROB	3.235	n/a	n/a	-999	7	[5, 5, 4]	14.0	FR1	0	R1063C
802.14	9.152	553129	PROB	9.119	n/a	n/a	-999	7	[9, 4, 8]	21.0	FR1	0	R1063C
811.292	4.841	557704	PROB	4.841	n/a	n/a	-999	7	[8, 7, 5]	20.0	FR1	0	R1063C
816.133	0.01	560125	STOP	n/a	n/a	n/a	-999	7	[-999, -999, -999]	n/a	FR1	0	R1063C
816.143	1.151	560130	DISTRACT_END	n/a	n/a	n/a	-999	7	[0, 0, 0]	n/a	FR1	0	R1063C
817.294	1.218	560705	REC_START	n/a	n/a	n/a	-999	7	[0, 0, 0]	n/a	FR1	0	R1063C
818.512	0.878	561314	REC_WORD	1.218	n/a	SUN	1	7	[0, 0, 0]	n/a	FR1	0	R1063C
819.39	1.314	561753	REC_WORD	2.096	n/a	TOAD	2	7	[0, 0, 0]	n/a	FR1	0	R1063C
820.704	3.245	562410	REC_WORD_VV	3.41	n/a	<>	-999	7	[0, 0, 0]	n/a	FR1	0	R1063C
823.949	0.761	564032	REC_WORD	6.655	n/a	BEAR	12	7	[0, 0, 0]	n/a	FR1	0	R1063C
824.71	7.301	564413	REC_WORD_VV	7.416	n/a	<>	-999	7	[0, 0, 0]	n/a	FR1	0	R1063C
832.011	7.229	568063	REC_WORD_VV	14.717	n/a	<>	-999	7	[0, 0, 0]	n/a	FR1	0	R1063C
839.24	2.862	571677	REC_WORD_VV	21.946	n/a	<>	-999	7	[0, 0, 0]	n/a	FR1	0	R1063C
842.102	4.285	573108	REC_WORD	24.808	n/a	FOX	11	7	[0, 0, 0]	n/a	FR1	0	R1063C
846.387	0.917	575250	REC_WORD_VV	29.093	n/a	<>	-999	7	[0, 0, 0]	n/a	FR1	0	R1063C
847.304	2.162	575709	REC_END	n/a	n/a	n/a	-999	7	[0, 0, 0]	n/a	FR1	0	R1063C
849.466	0.0	576790	TRIAL	n/a	n/a	n/a	-999	8	[0, 0, 0]	n/a	FR1	0	R1063C
849.466	10.0	576790	COUNTDOWN_START	n/a	n/a	n/a	-999	8	[0, 0, 0]	n/a	FR1	0	R1063C
859.894	0.008	582003	COUNTDOWN_END	n/a	n/a	n/a	-999	8	[0, 0, 0]	n/a	FR1	0	R1063C
859.902	1.6	582007	ORIENT	n/a	n/a	n/a	-999	8	[0, 0, 0]	n/a	FR1	0	R1063C
862.368	1.6	583240	WORD	n/a	wordpools/wordpool_EN.txt	SOAP	1	8	[0, 0, 0]	n/a	FR1	0	R1063C
864.836	1.6	584474	WORD	n/a	wordpools/wordpool_EN.txt	GRAPE	2	8	[0, 0, 0]	n/a	FR1	0	R1063C
867.336	1.6	585724	WORD	n/a	wordpools/wordpool_EN.txt	FLUTE	3	8	[0, 0, 0]	n/a	FR1	0	R1063C
869.804	1.6	586958	WORD	n/a	wordpools/wordpool_EN.txt	BENCH	4	8	[0, 0, 0]	n/a	FR1	0	R1063C
872.204	1.6	588158	WORD	n/a	wordpools/wordpool_EN.txt	FAN	5	8	[0, 0, 0]	n/a	FR1	0	R1063C
874.671	1.6	589391	WORD	n/a	wordpools/wordpool_EN.txt	JUICE	6	8	[0, 0, 0]	n/a	FR1	0	R1063C
877.238	1.6	590675	WORD	n/a	wordpools/wordpool_EN.txt	FRUIT	7	8	[0, 0, 0]	n/a	FR1	0	R1063C
879.688	1.6	591899	WORD	n/a	wordpools/wordpool_EN.txt	COUCH	8	8	[0, 0, 0]	n/a	FR1	0	R1063C
882.305	1.6	593208	WORD	n/a	wordpools/wordpool_EN.txt	GLASS	9	8	[0, 0, 0]	n/a	FR1	0	R1063C
884.689	1.6	594400	WORD	n/a	wordpools/wordpool_EN.txt	BOWL	10	8	[0, 0, 0]	n/a	FR1	0	R1063C
887.123	1.6	595617	WORD	n/a	wordpools/wordpool_EN.txt	BOOT	11	8	[0, 0, 0]	n/a	FR1	0	R1063C
889.557	1.6	596834	WORD	n/a	wordpools/wordpool_EN.txt	CANE	12	8	[0, 0, 0]	n/a	FR1	0	R1063C
891.174	0.001	597642	DISTRACT_START	n/a	n/a	n/a	-999	8	[0, 0, 0]	n/a	FR1	0	R1063C
891.175	0.015	597643	START	n/a	n/a	n/a	-999	8	[-999, -999, -999]	n/a	FR1	0	R1063C
891.19	3.751	597650	PROB	3.727	n/a	n/a	-999	8	[7, 3, 6]	16.0	FR1	0	R1063C
894.941	4.919	599525	PROB	4.889	n/a	n/a	-999	8	[6, 2, 2]	10.0	FR1	0	R1063C
899.86	4.15	601985	PROB	4.121	n/a	n/a	-999	8	[4, 2, 4]	10.0	FR1	0	R1063C
904.01	4.885	604059	PROB	4.86	n/a	n/a	-999	8	[7, 5, 5]	17.0	FR1	0	R1063C
908.895	4.086	606502	PROB	4.086	n/a	n/a	-999	8	[5, 9, 5]	19.0	FR1	0	R1063C
912.981	0.014	608545	STOP	n/a	n/a	n/a	-999	8	[-999, -999, -999]	n/a	FR1	0	R1063C
912.995	1.2	608552	DISTRACT_END	n/a	n/a	n/a	-999	8	[0, 0, 0]	n/a	FR1	0	R1063C
914.195	1.085	609152	REC_START	n/a	n/a	n/a	-999	8	[0, 0, 0]	n/a	FR1	0	R1063C
915.28	0.518	609694	REC_WORD_VV	1.085	n/a	<>	-999	8	[0, 0, 0]	n/a	FR1	0	R1063C
915.798	1.708	609953	REC_WORD	1.603	n/a	GLASS	9	8	[0, 0, 0]	n/a	FR1	0	R1063C
917.506	3.733	610807	REC_WORD_VV	3.311	n/a	<>	-999	8	[0, 0, 0]	n/a	FR1	0	R1063C
921.239	6.721	612673	REC_WORD_VV	7.044	n/a	<>	-999	8	[0, 0, 0]	n/a	FR1	0	R1063C
927.96	9.577	616033	REC_WORD_VV	13.765	n/a	<>	-999	8	[0, 0, 0]	n/a	FR1	0	R1063C
937.537	6.671	620821	REC_WORD_VV	23.342	n/a	<>	-999	8	[0, 0, 0]	n/a	FR1	0	R1063C
944.208	3.076	624157	REC_END	n/a	n/a	n/a	-999	8	[0, 0, 0]	n/a	FR1	0	R1063C
947.284	10.0	625695	COUNTDOWN_START	n/a	n/a	n/a	-999	9	[0, 0, 0]	n/a	FR1	0	R1063C
947.285	10.427	625695	TRIAL	n/a	n/a	n/a	-999	9	[0, 0, 0]	n/a	FR1	0	R1063C
957.712	0.008	630908	COUNTDOWN_END	n/a	n/a	n/a	-999	9	[0, 0, 0]	n/a	FR1	0	R1063C
957.72	1.6	630912	ORIENT	n/a	n/a	n/a	-999	9	[0, 0, 0]	n/a	FR1	0	R1063C
960.22	1.6	632162	WORD	n/a	wordpools/wordpool_EN.txt	SEAL	1	9	[0, 0, 0]	n/a	FR1	0	R1063C
962.587	1.6	633345	WORD	n/a	wordpools/wordpool_EN.txt	GOLD	2	9	[0, 0, 0]	n/a	FR1	0	R1063C
965.038	1.6	634571	WORD	n/a	wordpools/wordpool_EN.txt	GUARD	3	9	[0, 0, 0]	n/a	FR1	0	R1063C
967.605	1.6	635854	WORD	n/a	wordpools/wordpool_EN.txt	NAIL	4	9	[0, 0, 0]	n/a	FR1	0	R1063C
970.072	1.6	637088	WORD	n/a	wordpools/wordpool_EN.txt	SQUARE	5	9	[0, 0, 0]	n/a	FR1	0	R1063C
972.656	1.6	638379	WORD	n/a	wordpools/wordpool_EN.txt	CAPE	6	9	[0, 0, 0]	n/a	FR1	0	R1063C
975.206	1.6	639654	WORD	n/a	wordpools/wordpool_EN.txt	TOOL	7	9	[0, 0, 0]	n/a	FR1	0	R1063C
977.74	1.6	640921	WORD	n/a	wordpools/wordpool_EN.txt	CROWN	8	9	[0, 0, 0]	n/a	FR1	0	R1063C
980.19	1.6	642146	WORD	n/a	wordpools/wordpool_EN.txt	SWORD	9	9	[0, 0, 0]	n/a	FR1	0	R1063C
982.624	1.6	643363	WORD	n/a	wordpools/wordpool_EN.txt	HAND	10	9	[0, 0, 0]	n/a	FR1	0	R1063C
985.158	1.6	644630	WORD	n/a	wordpools/wordpool_EN.txt	BLUSH	11	9	[0, 0, 0]	n/a	FR1	0	R1063C
987.542	1.6	645822	WORD	n/a	wordpools/wordpool_EN.txt	PIT	12	9	[0, 0, 0]	n/a	FR1	0	R1063C
989.159	0.001	646630	DISTRACT_START	n/a	n/a	n/a	-999	9	[0, 0, 0]	n/a	FR1	0	R1063C
989.16	0.016	646631	START	n/a	n/a	n/a	-999	9	[-999, -999, -999]	n/a	FR1	0	R1063C
989.176	4.734	646639	PROB	4.702	n/a	n/a	-999	9	[3, 8, 9]	20.0	FR1	0	R1063C
993.91	4.0	649006	PROB	3.968	n/a	n/a	-999	9	[9, 2, 5]	16.0	FR1	0	R1063C
997.91	3.585	651005	PROB	3.551	n/a	n/a	-999	9	[4, 9, 7]	20.0	FR1	0	R1063C
1001.495	3.834	652798	PROB	3.798	n/a	n/a	-999	9	[5, 3, 8]	16.0	FR1	0	R1063C
1005.329	4.86	654715	PROB	4.86	n/a	n/a	-999	9	[5, 9, 9]	23.0	FR1	0	R1063C
1010.189	0.007	657144	STOP	n/a	n/a	n/a	-999	9	[-999, -999, -999]	n/a	FR1	0	R1063C
1010.196	1.168	657148	DISTRACT_END	n/a	n/a	n/a	-999	9	[0, 0, 0]	n/a	FR1	0	R1063C
1011.364	0.842	657732	REC_START	n/a	n/a	n/a	-999	9	[0, 0, 0]	n/a	FR1	0	R1063C
1012.206	0.53	658153	REC_WORD_VV	0.842	n/a	<>	-999	9	[0, 0, 0]	n/a	FR1	0	R1063C
1012.736	1.514	658418	REC_WORD	1.372	n/a	GOLD	2	9	[0, 0, 0]	n/a	FR1	0	R1063C
1014.25	2.858	659175	REC_WORD	2.886	n/a	SWORD	9	9	[0, 0, 0]	n/a	FR1	0	R1063C
1017.108	0.942	660604	REC_WORD_VV	5.744	n/a	<>	-999	9	[0, 0, 0]	n/a	FR1	0	R1063C
1018.05	1.0	661075	REC_WORD_VV	6.686	n/a	<>	-999	9	[0, 0, 0]	n/a	FR1	0	R1063C
1019.05	1.0	661574	REC_WORD_VV	7.686	n/a	<>	-999	9	[0, 0, 0]	n/a	FR1	0	R1063C
1020.05	3.219	662074	REC_WORD_VV	8.686	n/a	<>	-999	9	[0, 0, 0]	n/a	FR1	0	R1063C
1023.269	0.962	663684	REC_WORD	11.905	n/a	ZOO	-999	9	[0, 0, 0]	n/a	FR1	0	R1063C
1024.231	5.455	664165	REC_WORD_VV	12.867	n/a	<>	-999	9	[0, 0, 0]	n/a	FR1	0	R1063C
1029.686	3.602	666892	REC_WORD_VV	18.322	n/a	<>	-999	9	[0, 0, 0]	n/a	FR1	0	R1063C
1033.288	4.483	668693	REC_WORD_VV	21.924	n/a	<>	-999	9	[0, 0, 0]	n/a	FR1	0	R1063C
1037.771	3.604	670934	REC_WORD_VV	26.407	n/a	<>	-999	9	[0, 0, 0]	n/a	FR1	0	R1063C
1041.375	4.178	672736	REC_END	n/a	n/a	n/a	-999	9	[0, 0, 0]	n/a	FR1	0	R1063C
1045.553	0.0	674825	TRIAL	n/a	n/a	n/a	-999	10	[0, 0, 0]	n/a	FR1	0	R1063C
1045.553	10.0	674825	COUNTDOWN_START	n/a	n/a	n/a	-999	10	[0, 0, 0]	n/a	FR1	0	R1063C
1055.981	0.007	680038	COUNTDOWN_END	n/a	n/a	n/a	-999	10	[0, 0, 0]	n/a	FR1	0	R1063C
1055.988	1.6	680042	ORIENT	n/a	n/a	n/a	-999	10	[0, 0, 0]	n/a	FR1	0	R1063C
1058.555	1.6	681325	WORD	n/a	wordpools/wordpool_EN.txt	TEA	1	10	[0, 0, 0]	n/a	FR1	0	R1063C
1061.106	1.6	682601	WORD	n/a	wordpools/wordpool_EN.txt	SHRIMP	2	10	[0, 0, 0]	n/a	FR1	0	R1063C
1063.556	1.6	683826	WORD	n/a	wordpools/wordpool_EN.txt	LAMP	3	10	[0, 0, 0]	n/a	FR1	0	R1063C
1066.157	1.6	685126	WORD	n/a	wordpools/wordpool_EN.txt	SUIT	4	10	[0, 0, 0]	n/a	FR1	0	R1063C
1068.707	1.6	686401	WORD	n/a	wordpools/wordpool_EN.txt	FOOD	5	10	[0, 0, 0]	n/a	FR1	0	R1063C
1071.274	1.6	687684	WORD	n/a	wordpools/wordpool_EN.txt	TOE	6	10	[0, 0, 0]	n/a	FR1	0	R1063C
1073.658	1.6	688876	WORD	n/a	wordpools/wordpool_EN.txt	HOOF	7	10	[0, 0, 0]	n/a	FR1	0	R1063C
1076.159	1.6	690126	WORD	n/a	wordpools/wordpool_EN.txt	ROOT	8	10	[0, 0, 0]	n/a	FR1	0	R1063C
1078.592	1.6	691343	WORD	n/a	wordpools/wordpool_EN.txt	BEAN	9	10	[0, 0, 0]	n/a	FR1	0	R1063C
1081.026	1.6	692560	WORD	n/a	wordpools/wordpool_EN.txt	RAKE	10	10	[0, 0, 0]	n/a	FR1	0	R1063C
1083.443	1.6	693768	WORD	n/a	wordpools/wordpool_EN.txt	SOCK	11	10	[0, 0, 0]	n/a	FR1	0	R1063C
1085.845	1.6	694969	WORD	n/a	wordpools/wordpool_EN.txt	BATH	12	10	[0, 0, 0]	n/a	FR1	0	R1063C
1087.461	0.001	695777	DISTRACT_START	n/a	n/a	n/a	-999	10	[0, 0, 0]	n/a	FR1	0	R1063C
1087.462	0.015	695777	START	n/a	n/a	n/a	-999	10	[-999, -999, -999]	n/a	FR1	0	R1063C
1087.477	4.685	695785	PROB	4.656	n/a	n/a	-999	10	[7, 3, 6]	16.0	FR1	0	R1063C
1092.162	3.183	698127	PROB	3.155	n/a	n/a	-999	10	[1, 9, 7]	17.0	FR1	0	R1063C
1095.345	3.935	699719	PROB	3.9	n/a	n/a	-999	10	[4, 7, 7]	18.0	FR1	0	R1063C
1099.28	3.384	701686	PROB	3.357	n/a	n/a	-999	10	[5, 8, 3]	16.0	FR1	0	R1063C
1102.664	3.283	703378	PROB	3.253	n/a	n/a	-999	10	[4, 9, 2]	15.0	FR1	0	R1063C
1105.947	4.29	705019	PROB	4.29	n/a	n/a	-999	10	[2, 4, 3]	9.0	FR1	0	R1063C
1110.237	0.011	707164	STOP	n/a	n/a	n/a	-999	10	[-999, -999, -999]	n/a	FR1	0	R1063C
1110.248	1.218	707170	DISTRACT_END	n/a	n/a	n/a	-999	10	[0, 0, 0]	n/a	FR1	0	R1063C
1111.466	1.731	707778	REC_START	n/a	n/a	n/a	-999	10	[0, 0, 0]	n/a	FR1	0	R1063C
1113.197	3.578	708644	REC_WORD_VV	1.731	n/a	<>	-999	10	[0, 0, 0]	n/a	FR1	0	R1063C
1116.775	1.0	710433	REC_WORD_VV	5.309	n/a	<>	-999	10	[0, 0, 0]	n/a	FR1	0	R1063C
1117.775	7.303	710933	REC_WORD_VV	6.309	n/a	<>	-999	10	[0, 0, 0]	n/a	FR1	0	R1063C
1125.078	3.773	714584	REC_WORD_VV	13.612	n/a	<>	-999	10	[0, 0, 0]	n/a	FR1	0	R1063C
1128.851	1.78	716470	REC_WORD_VV	17.385	n/a	<>	-999	10	[0, 0, 0]	n/a	FR1	0	R1063C
1130.631	5.088	717360	REC_WORD_VV	19.165	n/a	<>	-999	10	[0, 0, 0]	n/a	FR1	0	R1063C
1135.719	5.757	719904	REC_WORD_VV	24.253	n/a	<>	-999	10	[0, 0, 0]	n/a	FR1	0	R1063C
1141.476	9.53	722782	REC_END	n/a	n/a	n/a	-999	10	[0, 0, 0]	n/a	FR1	0	R1063C
1151.006	0.0	727547	TRIAL	n/a	n/a	n/a	-999	11	[0, 0, 0]	n/a	FR1	0	R1063C
1151.006	10.0	727547	COUNTDOWN_START	n/a	n/a	n/a	-999	11	[0, 0, 0]	n/a	FR1	0	R1063C
1161.434	0.007	732760	COUNTDOWN_END	n/a	n/a	n/a	-999	11	[0, 0, 0]	n/a	FR1	0	R1063C
1161.441	1.6	732764	ORIENT	n/a	n/a	n/a	-999	11	[0, 0, 0]	n/a	FR1	0	R1063C
1163.942	1.6	734014	WORD	n/a	wordpools/wordpool_EN.txt	BRUSH	1	11	[0, 0, 0]	n/a	FR1	0	R1063C
1166.409	1.6	735248	WORD	n/a	wordpools/wordpool_EN.txt	FLAME	2	11	[0, 0, 0]	n/a	FR1	0	R1063C
1168.844	1.6	736465	WORD	n/a	wordpools/wordpool_EN.txt	STICK	3	11	[0, 0, 0]	n/a	FR1	0	R1063C
1171.293	1.6	737689	WORD	n/a	wordpools/wordpool_EN.txt	ROSE	4	11	[0, 0, 0]	n/a	FR1	0	R1063C
1173.694	1.6	738890	WORD	n/a	wordpools/wordpool_EN.txt	POND	5	11	[0, 0, 0]	n/a	FR1	0	R1063C
1176.311	1.6	740198	WORD	n/a	wordpools/wordpool_EN.txt	PARK	6	11	[0, 0, 0]	n/a	FR1	0	R1063C
1178.895	1.6	741490	WORD	n/a	wordpools/wordpool_EN.txt	SLIME	7	11	[0, 0, 0]	n/a	FR1	0	R1063C
1181.362	1.6	742723	WORD	n/a	wordpools/wordpool_EN.txt	DEER	8	11	[0, 0, 0]	n/a	FR1	0	R1063C
1183.847	1.6	743966	WORD	n/a	wordpools/wordpool_EN.txt	LIP	9	11	[0, 0, 0]	n/a	FR1	0	R1063C
1186.463	1.6	745274	WORD	n/a	wordpools/wordpool_EN.txt	MAT	10	11	[0, 0, 0]	n/a	FR1	0	R1063C
1188.93	1.6	746507	WORD	n/a	wordpools/wordpool_EN.txt	CLIFF	11	11	[0, 0, 0]	n/a	FR1	0	R1063C
1191.447	1.6	747765	WORD	n/a	wordpools/wordpool_EN.txt	JAR	12	11	[0, 0, 0]	n/a	FR1	0	R1063C
1193.064	0.001	748574	DISTRACT_START	n/a	n/a	n/a	-999	11	[0, 0, 0]	n/a	FR1	0	R1063C
1193.065	0.016	748574	START	n/a	n/a	n/a	-999	11	[-999, -999, -999]	n/a	FR1	0	R1063C
1193.081	6.984	748582	PROB	6.948	n/a	n/a	-999	11	[4, 7, 8]	19.0	FR1	0	R1063C
1200.065	2.967	752074	PROB	2.932	n/a	n/a	-999	11	[2, 5, 1]	8.0	FR1	0	R1063C
1203.032	2.802	753557	PROB	2.766	n/a	n/a	-999	11	[2, 3, 2]	7.0	FR1	0	R1063C
1205.834	3.383	754958	PROB	3.355	n/a	n/a	-999	11	[4, 3, 1]	8.0	FR1	0	R1063C
1209.217	5.252	756650	PROB	5.252	n/a	n/a	-999	11	[4, 9, 3]	16.0	FR1	0	R1063C
1214.469	0.016	759275	STOP	n/a	n/a	n/a	-999	11	[-999, -999, -999]	n/a	FR1	0	R1063C
1214.485	1.134	759283	DISTRACT_END	n/a	n/a	n/a	-999	11	[0, 0, 0]	n/a	FR1	0	R1063C
1215.619	0.968	759850	REC_START	n/a	n/a	n/a	-999	11	[0, 0, 0]	n/a	FR1	0	R1063C
1216.587	0.734	760334	REC_WORD	0.968	n/a	FLAME	2	11	[0, 0, 0]	n/a	FR1	0	R1063C
1217.321	3.129	760701	REC_WORD	1.702	n/a	BRUSH	1	11	[0, 0, 0]	n/a	FR1	0	R1063C
1220.45	0.584	762266	REC_WORD_VV	4.831	n/a	<>	-999	11	[0, 0, 0]	n/a	FR1	0	R1063C
1221.034	2.857	762558	REC_WORD	5.415	n/a	STICK	3	11	[0, 0, 0]	n/a	FR1	0	R1063C
1223.891	3.945	763986	REC_WORD_VV	8.272	n/a	<>	-999	11	[0, 0, 0]	n/a	FR1	0	R1063C
1227.836	9.641	765958	REC_WORD_VV	12.217	n/a	<>	-999	11	[0, 0, 0]	n/a	FR1	0	R1063C
1237.477	8.153	770778	REC_WORD_VV	21.858	n/a	<>	-999	11	[0, 0, 0]	n/a	FR1	0	R1063C
1245.63	100.996	774855	REC_END	n/a	n/a	n/a	-999	11	[0, 0, 0]	n/a	FR1	0	R1063C
1346.626	10.0	825348	COUNTDOWN_START	n/a	n/a	n/a	-999	12	[0, 0, 0]	n/a	FR1	0	R1063C
1346.626	10.428	825348	TRIAL	n/a	n/a	n/a	-999	12	[0, 0, 0]	n/a	FR1	0	R1063C
1357.054	0.007	830562	COUNTDOWN_END	n/a	n/a	n/a	-999	12	[0, 0, 0]	n/a	FR1	0	R1063C
1357.061	1.6	830565	ORIENT	n/a	n/a	n/a	-999	12	[0, 0, 0]	n/a	FR1	0	R1063C
1359.478	1.6	831774	WORD	n/a	wordpools/wordpool_EN.txt	TRAY	1	12	[0, 0, 0]	n/a	FR1	0	R1063C
1362.046	1.6	833058	WORD	n/a	wordpools/wordpool_EN.txt	SPOON	2	12	[0, 0, 0]	n/a	FR1	0	R1063C
1364.596	1.6	834332	WORD	n/a	wordpools/wordpool_EN.txt	TIE	3	12	[0, 0, 0]	n/a	FR1	0	R1063C
1367.08	1.6	835574	WORD	n/a	wordpools/wordpool_EN.txt	FROG	4	12	[0, 0, 0]	n/a	FR1	0	R1063C
1369.664	1.6	836866	WORD	n/a	wordpools/wordpool_EN.txt	SMILE	5	12	[0, 0, 0]	n/a	FR1	0	R1063C
1372.131	1.6	838100	WORD	n/a	wordpools/wordpool_EN.txt	FORK	6	12	[0, 0, 0]	n/a	FR1	0	R1063C
1374.615	1.6	839342	WORD	n/a	wordpools/wordpool_EN.txt	VEST	7	12	[0, 0, 0]	n/a	FR1	0	R1063C
1377.248	1.6	840658	WORD	n/a	wordpools/wordpool_EN.txt	ARM	8	12	[0, 0, 0]	n/a	FR1	0	R1063C
1379.749	1.6	841908	WORD	n/a	wordpools/wordpool_EN.txt	BREAD	9	12	[0, 0, 0]	n/a	FR1	0	R1063C
1382.283	1.6	843175	WORD	n/a	wordpools/wordpool_EN.txt	GOAT	10	12	[0, 0, 0]	n/a	FR1	0	R1063C
1384.868	1.6	844468	WORD	n/a	wordpools/wordpool_EN.txt	PIE	11	12	[0, 0, 0]	n/a	FR1	0	R1063C
1387.25	1.6	845658	WORD	n/a	wordpools/wordpool_EN.txt	STEAK	12	12	[0, 0, 0]	n/a	FR1	0	R1063C
1388.851	0.001	846459	DISTRACT_START	n/a	n/a	n/a	-999	12	[0, 0, 0]	n/a	FR1	0	R1063C
1388.852	0.016	846459	START	n/a	n/a	n/a	-999	12	[-999, -999, -999]	n/a	FR1	0	R1063C
1388.868	5.167	846467	PROB	5.145	n/a	n/a	-999	12	[9, 8, 3]	20.0	FR1	0	R1063C
1394.035	3.534	849051	PROB	3.514	n/a	n/a	-999	12	[2, 5, 8]	15.0	FR1	0	R1063C
1397.569	4.351	850818	PROB	4.324	n/a	n/a	-999	12	[1, 7, 4]	12.0	FR1	0	R1063C
1401.92	4.484	852993	PROB	4.461	n/a	n/a	-999	12	[3, 7, 7]	17.0	FR1	0	R1063C
1406.404	7.625	855235	PROB	7.625	n/a	n/a	-999	12	[9, 7, 8]	24.0	FR1	0	R1063C
1414.029	0.01	859047	STOP	n/a	n/a	n/a	-999	12	[-999, -999, -999]	n/a	FR1	0	R1063C
1414.039	1.067	859052	DISTRACT_END	n/a	n/a	n/a	-999	12	[0, 0, 0]	n/a	FR1	0	R1063C
1415.106	1.027	859585	REC_START	n/a	n/a	n/a	-999	12	[0, 0, 0]	n/a	FR1	0	R1063C
1416.133	1.491	860099	REC_WORD_VV	1.027	n/a	<>	-999	12	[0, 0, 0]	n/a	FR1	0	R1063C
1417.624	0.778	860844	REC_WORD	2.518	n/a	TRAY	1	12	[0, 0, 0]	n/a	FR1	0	R1063C
1418.402	1.1	861233	REC_WORD_VV	3.296	n/a	<>	-999	12	[0, 0, 0]	n/a	FR1	0	R1063C
1419.502	1.089	861783	REC_WORD_VV	4.396	n/a	<>	-999	12	[0, 0, 0]	n/a	FR1	0	R1063C
1420.591	0.305	862328	REC_WORD	5.485	n/a	FORK	6	12	[0, 0, 0]	n/a	FR1	0	R1063C
1420.896	2.336	862480	REC_WORD	5.79	n/a	FROG	4	12	[0, 0, 0]	n/a	FR1	0	R1063C
1423.232	4.209	863648	REC_WORD_VV	8.126	n/a	<>	-999	12	[0, 0, 0]	n/a	FR1	0	R1063C
1427.441	1.144	865752	REC_WORD_VV	12.335	n/a	<>	-999	12	[0, 0, 0]	n/a	FR1	0	R1063C
1428.585	6.453	866324	REC_WORD_VV	13.479	n/a	<>	-999	12	[0, 0, 0]	n/a	FR1	0	R1063C
1435.038	2.298	869550	REC_WORD_VV	19.932	n/a	<>	-999	12	[0, 0, 0]	n/a	FR1	0	R1063C
1437.336	5.591	870699	REC_WORD	22.23	n/a	TIE	3	12	[0, 0, 0]	n/a	FR1	0	R1063C
1442.927	2.194	873495	REC_WORD_VV	27.821	n/a	<>	-999	12	[0, 0, 0]	n/a	FR1	0	R1063C
1445.121	6.191	874591	REC_END	n/a	n/a	n/a	-999	12	[0, 0, 0]	n/a	FR1	0	R1063C
1451.312	10.0	877687	COUNTDOWN_START	n/a	n/a	n/a	-999	13	[0, 0, 0]	n/a	FR1	0	R1063C
1451.313	10.427	877687	TRIAL	n/a	n/a	n/a	-999	13	[0, 0, 0]	n/a	FR1	0	R1063C
1461.74	0.008	882900	COUNTDOWN_END	n/a	n/a	n/a	-999	13	[0, 0, 0]	n/a	FR1	0	R1063C
1461.748	1.6	882904	ORIENT	n/a	n/a	n/a	-999	13	[0, 0, 0]	n/a	FR1	0	R1063C
1464.315	1.6	884188	WORD	n/a	wordpools/wordpool_EN.txt	HAWK	1	13	[0, 0, 0]	n/a	FR1	0	R1063C
1466.833	1.6	885447	WORD	n/a	wordpools/wordpool_EN.txt	BEE	2	13	[0, 0, 0]	n/a	FR1	0	R1063C
1469.332	1.6	886696	WORD	n/a	wordpools/wordpool_EN.txt	SEAT	3	13	[0, 0, 0]	n/a	FR1	0	R1063C
1471.933	1.6	887996	WORD	n/a	wordpools/wordpool_EN.txt	CORN	4	13	[0, 0, 0]	n/a	FR1	0	R1063C
1474.333	1.6	889196	WORD	n/a	wordpools/wordpool_EN.txt	COW	5	13	[0, 0, 0]	n/a	FR1	0	R1063C
1476.768	1.6	890414	WORD	n/a	wordpools/wordpool_EN.txt	BARN	6	13	[0, 0, 0]	n/a	FR1	0	R1063C
1479.218	1.6	891639	WORD	n/a	wordpools/wordpool_EN.txt	OWL	7	13	[0, 0, 0]	n/a	FR1	0	R1063C
1481.718	1.6	892888	WORD	n/a	wordpools/wordpool_EN.txt	PET	8	13	[0, 0, 0]	n/a	FR1	0	R1063C
1484.118	1.6	894088	WORD	n/a	wordpools/wordpool_EN.txt	LAMB	9	13	[0, 0, 0]	n/a	FR1	0	R1063C
1486.585	1.6	895322	WORD	n/a	wordpools/wordpool_EN.txt	SKY	10	13	[0, 0, 0]	n/a	FR1	0	R1063C
1489.103	1.6	896581	WORD	n/a	wordpools/wordpool_EN.txt	FLEA	11	13	[0, 0, 0]	n/a	FR1	0	R1063C
1491.52	1.6	897789	WORD	n/a	wordpools/wordpool_EN.txt	EEL	12	13	[0, 0, 0]	n/a	FR1	0	R1063C
1493.137	0.001	898597	DISTRACT_START	n/a	n/a	n/a	-999	13	[0, 0, 0]	n/a	FR1	0	R1063C
1493.138	0.016	898598	START	n/a	n/a	n/a	-999	13	[-999, -999, -999]	n/a	FR1	0	R1063C
1493.154	6.417	898606	PROB	6.387	n/a	n/a	-999	13	[7, 9, 4]	20.0	FR1	0	R1063C
1499.571	4.385	901814	PROB	4.362	n/a	n/a	-999	13	[3, 3, 7]	13.0	FR1	0	R1063C
1503.956	4.334	904006	PROB	4.313	n/a	n/a	-999	13	[5, 7, 8]	20.0	FR1	0	R1063C
1508.29	3.518	906173	PROB	3.484	n/a	n/a	-999	13	[7, 9, 2]	18.0	FR1	0	R1063C
1511.808	3.333	907932	PROB	3.333	n/a	n/a	-999	13	[7, 2, 8]	17.0	FR1	0	R1063C
1515.141	0.017	909598	STOP	n/a	n/a	n/a	-999	13	[-999, -999, -999]	n/a	FR1	0	R1063C
1515.158	1.2	909607	DISTRACT_END	n/a	n/a	n/a	-999	13	[0, 0, 0]	n/a	FR1	0	R1063C
1516.358	1.333	910207	REC_START	n/a	n/a	n/a	-999	13	[0, 0, 0]	n/a	FR1	0	R1063C
1517.691	0.512	910873	REC_WORD_VV	1.333	n/a	<>	-999	13	[0, 0, 0]	n/a	FR1	0	R1063C
1518.203	1.294	911129	REC_WORD	1.845	n/a	HAWK	1	13	[0, 0, 0]	n/a	FR1	0	R1063C
1519.497	0.57	911776	REC_WORD	3.139	n/a	BEE	2	13	[0, 0, 0]	n/a	FR1	0	R1063C
1520.067	0.97	912061	REC_WORD	3.709	n/a	COW	5	13	[0, 0, 0]	n/a	FR1	0	R1063C
1521.037	2.065	912546	REC_WORD	4.679	n/a	EEL	12	13	[0, 0, 0]	n/a	FR1	0	R1063C
1523.102	5.838	913579	REC_WORD_VV	6.744	n/a	<>	-999	13	[0, 0, 0]	n/a	FR1	0	R1063C
1528.94	1.501	916497	REC_WORD_VV	12.582	n/a	<>	-999	13	[0, 0, 0]	n/a	FR1	0	R1063C
1530.441	0.179	917248	REC_WORD_VV	14.083	n/a	<>	-999	13	[0, 0, 0]	n/a	FR1	0	R1063C
1530.62	2.41	917337	REC_WORD	14.262	n/a	OWL	7	13	[0, 0, 0]	n/a	FR1	0	R1063C
1533.03	2.779	918542	REC_WORD_VV	16.672	n/a	<>	-999	13	[0, 0, 0]	n/a	FR1	0	R1063C
1535.809	2.056	919932	REC_WORD	19.451	n/a	PET	8	13	[0, 0, 0]	n/a	FR1	0	R1063C
1537.865	5.13	920959	REC_WORD_VV	21.507	n/a	<>	-999	13	[0, 0, 0]	n/a	FR1	0	R1063C
1542.995	1.85	923524	REC_WORD_VV	26.637	n/a	<>	-999	13	[0, 0, 0]	n/a	FR1	0	R1063C
1544.845	0.741	924449	REC_WORD	28.487	n/a	COW	5	13	[0, 0, 0]	n/a	FR1	0	R1063C
1545.586	0.787	924820	REC_WORD	29.228	n/a	COW	5	13	[0, 0, 0]	n/a	FR1	0	R1063C
1546.373	3.991	925213	REC_END	n/a	n/a	n/a	-999	13	[0, 0, 0]	n/a	FR1	0	R1063C
1550.364	0.0	927208	TRIAL	n/a	n/a	n/a	-999	14	[0, 0, 0]	n/a	FR1	0	R1063C
1550.364	10.0	927208	COUNTDOWN_START	n/a	n/a	n/a	-999	14	[0, 0, 0]	n/a	FR1	0	R1063C
1560.792	0.009	932422	COUNTDOWN_END	n/a	n/a	n/a	-999	14	[0, 0, 0]	n/a	FR1	0	R1063C
1560.801	1.6	932426	ORIENT	n/a	n/a	n/a	-999	14	[0, 0, 0]	n/a	FR1	0	R1063C
1563.217	1.6	933634	WORD	n/a	wordpools/wordpool_EN.txt	PIPE	1	14	[0, 0, 0]	n/a	FR1	0	R1063C
1565.785	1.6	934918	WORD	n/a	wordpools/wordpool_EN.txt	STRING	2	14	[0, 0, 0]	n/a	FR1	0	R1063C
1568.184	1.6	936118	WORD	n/a	wordpools/wordpool_EN.txt	ROOM	3	14	[0, 0, 0]	n/a	FR1	0	R1063C
1570.618	1.6	937335	WORD	n/a	wordpools/wordpool_EN.txt	DART	4	14	[0, 0, 0]	n/a	FR1	0	R1063C
1573.185	1.6	938618	WORD	n/a	wordpools/wordpool_EN.txt	BAND	5	14	[0, 0, 0]	n/a	FR1	0	R1063C
1575.753	1.6	939902	WORD	n/a	wordpools/wordpool_EN.txt	CHEEK	6	14	[0, 0, 0]	n/a	FR1	0	R1063C
1578.17	1.6	941110	WORD	n/a	wordpools/wordpool_EN.txt	NEST	7	14	[0, 0, 0]	n/a	FR1	0	R1063C
1580.703	1.6	942377	WORD	n/a	wordpools/wordpool_EN.txt	HAT	8	14	[0, 0, 0]	n/a	FR1	0	R1063C
1583.17	1.6	943610	WORD	n/a	wordpools/wordpool_EN.txt	DOLL	9	14	[0, 0, 0]	n/a	FR1	0	R1063C
1585.772	1.6	944911	WORD	n/a	wordpools/wordpool_EN.txt	BIRD	10	14	[0, 0, 0]	n/a	FR1	0	R1063C
1588.238	1.6	946144	WORD	n/a	wordpools/wordpool_EN.txt	CRANE	11	14	[0, 0, 0]	n/a	FR1	0	R1063C
1590.622	1.6	947336	WORD	n/a	wordpools/wordpool_EN.txt	TAIL	12	14	[0, 0, 0]	n/a	FR1	0	R1063C
1592.239	0.001	948144	DISTRACT_START	n/a	n/a	n/a	-999	14	[0, 0, 0]	n/a	FR1	0	R1063C
1592.24	0.016	948145	START	n/a	n/a	n/a	-999	14	[-999, -999, -999]	n/a	FR1	0	R1063C
1592.256	4.767	948153	PROB	4.741	n/a	n/a	-999	14	[6, 6, 9]	21.0	FR1	0	R1063C
1597.023	4.318	950536	PROB	4.294	n/a	n/a	-999	14	[9, 3, 9]	21.0	FR1	0	R1063C
1601.341	5.584	952695	PROB	5.561	n/a	n/a	-999	14	[6, 7, 9]	22.0	FR1	0	R1063C
1606.925	5.118	955486	PROB	5.096	n/a	n/a	-999	14	[3, 1, 4]	8.0	FR1	0	R1063C
1612.043	3.851	958045	PROB	3.851	n/a	n/a	-999	14	[3, 8, 9]	20.0	FR1	0	R1063C
1615.894	0.016	959971	STOP	n/a	n/a	n/a	-999	14	[-999, -999, -999]	n/a	FR1	0	R1063C
1615.91	1.034	959979	DISTRACT_END	n/a	n/a	n/a	-999	14	[0, 0, 0]	n/a	FR1	0	R1063C
1616.944	3.138	960496	REC_START	n/a	n/a	n/a	-999	14	[0, 0, 0]	n/a	FR1	0	R1063C
1620.082	1.345	962064	REC_WORD_VV	3.138	n/a	<>	-999	14	[0, 0, 0]	n/a	FR1	0	R1063C
1621.427	2.316	962737	REC_WORD	4.483	n/a	STRING	2	14	[0, 0, 0]	n/a	FR1	0	R1063C
1623.743	0.732	963895	REC_WORD_VV	6.799	n/a	<>	-999	14	[0, 0, 0]	n/a	FR1	0	R1063C
1624.475	4.137	964261	REC_WORD	7.531	n/a	PIPE	1	14	[0, 0, 0]	n/a	FR1	0	R1063C
1628.612	0.207	966329	REC_WORD_VV	11.668	n/a	<>	-999	14	[0, 0, 0]	n/a	FR1	0	R1063C
1628.819	0.313	966433	REC_WORD	11.875	n/a	HAWK	-999	14	[0, 0, 0]	n/a	FR1	0	R1063C
1629.132	2.945	966589	REC_WORD_VV	12.188	n/a	<>	-999	14	[0, 0, 0]	n/a	FR1	0	R1063C
1632.077	0.475	968061	REC_WORD	15.133	n/a	SKY	-999	14	[0, 0, 0]	n/a	FR1	0	R1063C
1632.552	0.845	968299	REC_WORD_VV	15.608	n/a	<>	-999	14	[0, 0, 0]	n/a	FR1	0	R1063C
1633.397	4.143	968721	REC_WORD_VV	16.453	n/a	<>	-999	14	[0, 0, 0]	n/a	FR1	0	R1063C
1637.54	7.585	970793	REC_WORD_VV	20.596	n/a	<>	-999	14	[0, 0, 0]	n/a	FR1	0	R1063C
1645.125	1.83	974585	REC_WORD_VV	28.181	n/a	<>	-999	14	[0, 0, 0]	n/a	FR1	0	R1063C
1646.955	3.128	975500	REC_END	n/a	n/a	n/a	-999	14	[0, 0, 0]	n/a	FR1	0	R1063C
1650.083	0.0	977064	TRIAL	n/a	n/a	n/a	-999	15	[0, 0, 0]	n/a	FR1	0	R1063C
1650.083	10.0	977064	COUNTDOWN_START	n/a	n/a	n/a	-999	15	[0, 0, 0]	n/a	FR1	0	R1063C
1660.511	0.007	982277	COUNTDOWN_END	n/a	n/a	n/a	-999	15	[0, 0, 0]	n/a	FR1	0	R1063C
1660.518	1.6	982281	ORIENT	n/a	n/a	n/a	-999	15	[0, 0, 0]	n/a	FR1	0	R1063C
1662.903	1.6	983473	WORD	n/a	wordpools/wordpool_EN.txt	MUG	1	15	[0, 0, 0]	n/a	FR1	0	R1063C
1665.436	1.6	984739	WORD	n/a	wordpools/wordpool_EN.txt	TRUCK	2	15	[0, 0, 0]	n/a	FR1	0	R1063C
1667.871	1.6	985957	WORD	n/a	wordpools/wordpool_EN.txt	STOOL	3	15	[0, 0, 0]	n/a	FR1	0	R1063C
1670.47	1.6	987256	WORD	n/a	wordpools/wordpool_EN.txt	PURSE	4	15	[0, 0, 0]	n/a	FR1	0	R1063C
1673.087	1.6	988565	WORD	n/a	wordpools/wordpool_EN.txt	SHELL	5	15	[0, 0, 0]	n/a	FR1	0	R1063C
1675.705	1.6	989873	WORD	n/a	wordpools/wordpool_EN.txt	PEARL	6	15	[0, 0, 0]	n/a	FR1	0	R1063C
1678.238	1.6	991140	WORD	n/a	wordpools/wordpool_EN.txt	MAZE	7	15	[0, 0, 0]	n/a	FR1	0	R1063C
1680.655	1.6	992348	WORD	n/a	wordpools/wordpool_EN.txt	FLOOR	8	15	[0, 0, 0]	n/a	FR1	0	R1063C
1683.239	1.6	993640	WORD	n/a	wordpools/wordpool_EN.txt	VAN	9	15	[0, 0, 0]	n/a	FR1	0	R1063C
1685.807	1.6	994924	WORD	n/a	wordpools/wordpool_EN.txt	HOOK	10	15	[0, 0, 0]	n/a	FR1	0	R1063C
1688.34	1.6	996190	WORD	n/a	wordpools/wordpool_EN.txt	PEA	11	15	[0, 0, 0]	n/a	FR1	0	R1063C
1690.908	1.6	997474	WORD	n/a	wordpools/wordpool_EN.txt	CLOWN	12	15	[0, 0, 0]	n/a	FR1	0	R1063C
1692.524	0.001	998282	DISTRACT_START	n/a	n/a	n/a	-999	15	[0, 0, 0]	n/a	FR1	0	R1063C
1692.525	0.016	998283	START	n/a	n/a	n/a	-999	15	[-999, -999, -999]	n/a	FR1	0	R1063C
1692.541	7.336	998291	PROB	7.313	n/a	n/a	-999	15	[7, 8, 4]	19.0	FR1	0	R1063C
1699.877	5.816	1001958	PROB	5.792	n/a	n/a	-999	15	[6, 1, 2]	10.0	FR1	0	R1063C
1705.693	5.086	1004866	PROB	5.056	n/a	n/a	-999	15	[1, 9, 3]	13.0	FR1	0	R1063C
1710.779	3.154	1007409	PROB	3.154	n/a	n/a	-999	15	[5, 9, 1]	15.0	FR1	0	R1063C
1713.933	0.012	1008986	STOP	n/a	n/a	n/a	-999	15	[-999, -999, -999]	n/a	FR1	0	R1063C
1713.945	1.168	1008992	DISTRACT_END	n/a	n/a	n/a	-999	15	[0, 0, 0]	n/a	FR1	0	R1063C
1715.113	0.655	1009576	REC_START	n/a	n/a	n/a	-999	15	[0, 0, 0]	n/a	FR1	0	R1063C
1715.768	0.411	1009903	REC_WORD_VV	0.655	n/a	<>	-999	15	[0, 0, 0]	n/a	FR1	0	R1063C
1716.179	0.613	1010109	REC_WORD	1.066	n/a	MUG	1	15	[0, 0, 0]	n/a	FR1	0	R1063C
1716.792	0.824	1010415	REC_WORD	1.679	n/a	TRUCK	2	15	[0, 0, 0]	n/a	FR1	0	R1063C
1717.616	2.767	1010827	REC_WORD	2.503	n/a	STOOL	3	15	[0, 0, 0]	n/a	FR1	0	R1063C
1720.383	6.407	1012211	REC_WORD_VV	5.27	n/a	<>	-999	15	[0, 0, 0]	n/a	FR1	0	R1063C
1726.79	4.078	1015414	REC_WORD_VV	11.677	n/a	<>	-999	15	[0, 0, 0]	n/a	FR1	0	R1063C
1730.868	0.368	1017453	REC_WORD	15.755	n/a	TRUCK	2	15	[0, 0, 0]	n/a	FR1	0	R1063C
1731.236	6.8	1017637	REC_WORD	16.123	n/a	STOOL	3	15	[0, 0, 0]	n/a	FR1	0	R1063C
1738.036	2.103	1021036	REC_WORD_VV	22.923	n/a	<>	-999	15	[0, 0, 0]	n/a	FR1	0	R1063C
1740.139	4.984	1022088	REC_WORD_VV	25.026	n/a	<>	-999	15	[0, 0, 0]	n/a	FR1	0	R1063C
1745.123	21.199	1024579	REC_END	n/a	n/a	n/a	-999	15	[0, 0, 0]	n/a	FR1	0	R1063C
1766.322	0.0	1035178	TRIAL	n/a	n/a	n/a	-999	16	[0, 0, 0]	n/a	FR1	0	R1063C
1766.322	10.0	1035178	COUNTDOWN_START	n/a	n/a	n/a	-999	16	[0, 0, 0]	n/a	FR1	0	R1063C
1776.75	0.008	1040392	COUNTDOWN_END	n/a	n/a	n/a	-999	16	[0, 0, 0]	n/a	FR1	0	R1063C
1776.758	1.6	1040396	ORIENT	n/a	n/a	n/a	-999	16	[0, 0, 0]	n/a	FR1	0	R1063C
1779.291	1.6	1041662	WORD	n/a	wordpools/wordpool_EN.txt	MULE	1	16	[0, 0, 0]	n/a	FR1	0	R1063C
1781.842	1.6	1042937	WORD	n/a	wordpools/wordpool_EN.txt	STORM	2	16	[0, 0, 0]	n/a	FR1	0	R1063C
1784.425	1.6	1044229	WORD	n/a	wordpools/wordpool_EN.txt	HEN	3	16	[0, 0, 0]	n/a	FR1	0	R1063C
1786.843	1.6	1045438	WORD	n/a	wordpools/wordpool_EN.txt	EGG	4	16	[0, 0, 0]	n/a	FR1	0	R1063C
1789.359	1.6	1046696	WORD	n/a	wordpools/wordpool_EN.txt	SKI	5	16	[0, 0, 0]	n/a	FR1	0	R1063C
1791.877	1.6	1047954	WORD	n/a	wordpools/wordpool_EN.txt	PEN	6	16	[0, 0, 0]	n/a	FR1	0	R1063C
1794.377	1.6	1049204	WORD	n/a	wordpools/wordpool_EN.txt	FORT	7	16	[0, 0, 0]	n/a	FR1	0	R1063C
1796.762	1.6	1050397	WORD	n/a	wordpools/wordpool_EN.txt	BEAK	8	16	[0, 0, 0]	n/a	FR1	0	R1063C
1799.144	1.6	1051588	WORD	n/a	wordpools/wordpool_EN.txt	SAIL	9	16	[0, 0, 0]	n/a	FR1	0	R1063C
1801.611	1.6	1052821	WORD	n/a	wordpools/wordpool_EN.txt	FARM	10	16	[0, 0, 0]	n/a	FR1	0	R1063C
1804.062	1.6	1054046	WORD	n/a	wordpools/wordpool_EN.txt	FUR	11	16	[0, 0, 0]	n/a	FR1	0	R1063C
1806.496	1.6	1055263	WORD	n/a	wordpools/wordpool_EN.txt	TRAIN	12	16	[0, 0, 0]	n/a	FR1	0	R1063C
1808.113	0.001	1056072	DISTRACT_START	n/a	n/a	n/a	-999	16	[0, 0, 0]	n/a	FR1	0	R1063C
1808.114	0.015	1056072	START	n/a	n/a	n/a	-999	16	[-999, -999, -999]	n/a	FR1	0	R1063C
1808.129	4.601	1056080	PROB	4.58	n/a	n/a	-999	16	[3, 4, 7]	14.0	FR1	0	R1063C
1812.73	4.668	1058380	PROB	4.643	n/a	n/a	-999	16	[4, 9, 8]	21.0	FR1	0	R1063C
1817.398	3.751	1060714	PROB	3.727	n/a	n/a	-999	16	[4, 8, 3]	15.0	FR1	0	R1063C
1821.149	3.484	1062589	PROB	3.448	n/a	n/a	-999	16	[8, 5, 1]	14.0	FR1	0	R1063C
1824.633	2.617	1064331	PROB	2.596	n/a	n/a	-999	16	[1, 6, 6]	13.0	FR1	0	R1063C
1827.25	3.155	1065639	PROB	3.155	n/a	n/a	-999	16	[3, 6, 6]	15.0	FR1	0	R1063C
1830.405	0.012	1067217	STOP	n/a	n/a	n/a	-999	16	[-999, -999, -999]	n/a	FR1	0	R1063C
1830.417	1.168	1067223	DISTRACT_END	n/a	n/a	n/a	-999	16	[0, 0, 0]	n/a	FR1	0	R1063C
1831.585	0.853	1067807	REC_START	n/a	n/a	n/a	-999	16	[0, 0, 0]	n/a	FR1	0	R1063C
1832.438	0.489	1068233	REC_WORD_VV	0.853	n/a	<>	-999	16	[0, 0, 0]	n/a	FR1	0	R1063C
1832.927	1.709	1068478	REC_WORD	1.342	n/a	MUG	-999	16	[0, 0, 0]	n/a	FR1	0	R1063C
1834.636	2.848	1069332	REC_WORD	3.051	n/a	STOOL	-999	16	[0, 0, 0]	n/a	FR1	0	R1063C
1837.484	9.831	1070756	REC_WORD	5.899	n/a	SKY	-999	16	[0, 0, 0]	n/a	FR1	0	R1063C
1847.315	6.531	1075671	REC_WORD_VV	15.73	n/a	<>	-999	16	[0, 0, 0]	n/a	FR1	0	R1063C
1853.846	0.658	1078936	REC_WORD	22.261	n/a	MULE	1	16	[0, 0, 0]	n/a	FR1	0	R1063C
1854.504	0.956	1079265	REC_WORD	22.919	n/a	EGG	4	16	[0, 0, 0]	n/a	FR1	0	R1063C
1855.46	0.697	1079743	REC_WORD_VV	23.875	n/a	<>	-999	16	[0, 0, 0]	n/a	FR1	0	R1063C
1856.157	4.162	1080092	REC_WORD_VV	24.572	n/a	<>	-999	16	[0, 0, 0]	n/a	FR1	0	R1063C
1860.319	1.277	1082172	REC_WORD_VV	28.734	n/a	<>	-999	16	[0, 0, 0]	n/a	FR1	0	R1063C
1861.596	3.127	1082811	REC_END	n/a	n/a	n/a	-999	16	[0, 0, 0]	n/a	FR1	0	R1063C
1864.723	10.0	1084374	COUNTDOWN_START	n/a	n/a	n/a	-999	17	[0, 0, 0]	n/a	FR1	0	R1063C
1864.724	10.427	1084375	TRIAL	n/a	n/a	n/a	-999	17	[0, 0, 0]	n/a	FR1	0	R1063C
1875.151	0.008	1089588	COUNTDOWN_END	n/a	n/a	n/a	-999	17	[0, 0, 0]	n/a	FR1	0	R1063C
1875.159	1.6	1089592	ORIENT	n/a	n/a	n/a	-999	17	[0, 0, 0]	n/a	FR1	0	R1063C
1877.576	1.6	1090800	WORD	n/a	wordpools/wordpool_EN.txt	CAT	1	17	[0, 0, 0]	n/a	FR1	0	R1063C
1880.01	1.6	1092017	WORD	n/a	wordpools/wordpool_EN.txt	TANK	2	17	[0, 0, 0]	n/a	FR1	0	R1063C
1882.527	1.6	1093276	WORD	n/a	wordpools/wordpool_EN.txt	BOAT	3	17	[0, 0, 0]	n/a	FR1	0	R1063C
1885.027	1.6	1094525	WORD	n/a	wordpools/wordpool_EN.txt	SPARK	4	17	[0, 0, 0]	n/a	FR1	0	R1063C
1887.628	1.6	1095826	WORD	n/a	wordpools/wordpool_EN.txt	WORM	5	17	[0, 0, 0]	n/a	FR1	0	R1063C
1890.162	1.6	1097093	WORD	n/a	wordpools/wordpool_EN.txt	HOSE	6	17	[0, 0, 0]	n/a	FR1	0	R1063C
1892.578	1.6	1098301	WORD	n/a	wordpools/wordpool_EN.txt	TRASH	7	17	[0, 0, 0]	n/a	FR1	0	R1063C
1895.029	1.6	1099526	WORD	n/a	wordpools/wordpool_EN.txt	KITE	8	17	[0, 0, 0]	n/a	FR1	0	R1063C
1897.63	1.6	1100826	WORD	n/a	wordpools/wordpool_EN.txt	FISH	9	17	[0, 0, 0]	n/a	FR1	0	R1063C
1900.213	1.6	1102118	WORD	n/a	wordpools/wordpool_EN.txt	WHEEL	10	17	[0, 0, 0]	n/a	FR1	0	R1063C
1902.765	1.6	1103394	WORD	n/a	wordpools/wordpool_EN.txt	DOG	11	17	[0, 0, 0]	n/a	FR1	0	R1063C
1905.198	1.6	1104610	WORD	n/a	wordpools/wordpool_EN.txt	LAND	12	17	[0, 0, 0]	n/a	FR1	0	R1063C
1906.816	0.001	1105419	DISTRACT_START	n/a	n/a	n/a	-999	17	[0, 0, 0]	n/a	FR1	0	R1063C
1906.817	0.015	1105419	START	n/a	n/a	n/a	-999	17	[-999, -999, -999]	n/a	FR1	0	R1063C
1906.832	5.267	1105427	PROB	5.237	n/a	n/a	-999	17	[3, 4, 4]	11.0	FR1	0	R1063C
1912.099	6.686	1108060	PROB	6.659	n/a	n/a	-999	17	[9, 7, 7]	22.0	FR1	0	R1063C
1918.785	5.966	1111403	PROB	5.932	n/a	n/a	-999	17	[5, 7, 2]	14.0	FR1	0	R1063C
1924.751	3.838	1114386	PROB	3.838	n/a	n/a	-999	17	[9, 1, 2]	12.0	FR1	0	R1063C
1928.589	0.013	1116305	STOP	n/a	n/a	n/a	-999	17	[-999, -999, -999]	n/a	FR1	0	R1063C
1928.602	1.152	1116311	DISTRACT_END	n/a	n/a	n/a	-999	17	[0, 0, 0]	n/a	FR1	0	R1063C
1929.754	1.61	1116887	REC_START	n/a	n/a	n/a	-999	17	[0, 0, 0]	n/a	FR1	0	R1063C
1931.364	1.122	1117692	REC_WORD	1.61	n/a	SHARK	-999	17	[0, 0, 0]	n/a	FR1	0	R1063C
1932.486	1.098	1118253	REC_WORD_VV	2.732	n/a	<>	-999	17	[0, 0, 0]	n/a	FR1	0	R1063C
1933.584	0.741	1118802	REC_WORD_VV	3.83	n/a	<>	-999	17	[0, 0, 0]	n/a	FR1	0	R1063C
1934.325	0.813	1119172	REC_WORD_VV	4.571	n/a	<>	-999	17	[0, 0, 0]	n/a	FR1	0	R1063C
1935.138	3.515	1119579	REC_WORD_VV	5.384	n/a	<>	-999	17	[0, 0, 0]	n/a	FR1	0	R1063C
1938.653	3.452	1121336	REC_WORD	8.899	n/a	TANK	2	17	[0, 0, 0]	n/a	FR1	0	R1063C
1942.105	2.874	1123062	REC_WORD_VV	12.351	n/a	<>	-999	17	[0, 0, 0]	n/a	FR1	0	R1063C
1944.979	4.178	1124499	REC_WORD_VV	15.225	n/a	<>	-999	17	[0, 0, 0]	n/a	FR1	0	R1063C
1949.157	6.943	1126588	REC_WORD_VV	19.403	n/a	<>	-999	17	[0, 0, 0]	n/a	FR1	0	R1063C
1956.1	0.346	1130059	REC_WORD	26.346	n/a	FISH	9	17	[0, 0, 0]	n/a	FR1	0	R1063C
1956.446	0.431	1130232	REC_WORD_VV	26.692	n/a	<>	-999	17	[0, 0, 0]	n/a	FR1	0	R1063C
1956.877	2.015	1130447	REC_WORD	27.123	n/a	CAT	1	17	[0, 0, 0]	n/a	FR1	0	R1063C
1958.892	0.877	1131455	REC_WORD_VV	29.138	n/a	<>	-999	17	[0, 0, 0]	n/a	FR1	0	R1063C
1959.769	7.19	1131893	REC_END	n/a	n/a	n/a	-999	17	[0, 0, 0]	n/a	FR1	0	R1063C
1966.959	10.0	1135488	COUNTDOWN_START	n/a	n/a	n/a	-999	18	[0, 0, 0]	n/a	FR1	0	R1063C
1966.96	10.427	1135488	TRIAL	n/a	n/a	n/a	-999	18	[0, 0, 0]	n/a	FR1	0	R1063C
1977.387	0.008	1140701	COUNTDOWN_END	n/a	n/a	n/a	-999	18	[0, 0, 0]	n/a	FR1	0	R1063C
1977.395	1.6	1140705	ORIENT	n/a	n/a	n/a	-999	18	[0, 0, 0]	n/a	FR1	0	R1063C
1979.896	1.6	1141956	WORD	n/a	wordpools/wordpool_EN.txt	SCHOOL	1	18	[0, 0, 0]	n/a	FR1	0	R1063C
1982.312	1.6	1143164	WORD	n/a	wordpools/wordpool_EN.txt	PIN	2	18	[0, 0, 0]	n/a	FR1	0	R1063C
1984.814	1.6	1144415	WORD	n/a	wordpools/wordpool_EN.txt	CLOCK	3	18	[0, 0, 0]	n/a	FR1	0	R1063C
1987.296	1.6	1145655	WORD	n/a	wordpools/wordpool_EN.txt	FLAG	4	18	[0, 0, 0]	n/a	FR1	0	R1063C
1989.914	1.6	1146964	WORD	n/a	wordpools/wordpool_EN.txt	THUMB	5	18	[0, 0, 0]	n/a	FR1	0	R1063C
1992.347	1.6	1148181	WORD	n/a	wordpools/wordpool_EN.txt	BOY	6	18	[0, 0, 0]	n/a	FR1	0	R1063C
1994.948	1.6	1149481	WORD	n/a	wordpools/wordpool_EN.txt	WORLD	7	18	[0, 0, 0]	n/a	FR1	0	R1063C
1997.532	1.6	1150773	WORD	n/a	wordpools/wordpool_EN.txt	DESK	8	18	[0, 0, 0]	n/a	FR1	0	R1063C
1999.999	1.6	1152006	WORD	n/a	wordpools/wordpool_EN.txt	BRIDGE	9	18	[0, 0, 0]	n/a	FR1	0	R1063C
2002.383	1.6	1153198	WORD	n/a	wordpools/wordpool_EN.txt	THREAD	10	18	[0, 0, 0]	n/a	FR1	0	R1063C
2004.851	1.6	1154432	WORD	n/a	wordpools/wordpool_EN.txt	INK	11	18	[0, 0, 0]	n/a	FR1	0	R1063C
2007.317	1.6	1155665	WORD	n/a	wordpools/wordpool_EN.txt	POOL	12	18	[0, 0, 0]	n/a	FR1	0	R1063C
2008.934	0.001	1156474	DISTRACT_START	n/a	n/a	n/a	-999	18	[0, 0, 0]	n/a	FR1	0	R1063C
2008.935	0.015	1156474	START	n/a	n/a	n/a	-999	18	[-999, -999, -999]	n/a	FR1	0	R1063C
2008.95	3.585	1156482	PROB	3.551	n/a	n/a	-999	18	[6, 6, 3]	15.0	FR1	0	R1063C
2012.535	4.967	1158274	PROB	4.942	n/a	n/a	-999	18	[7, 4, 8]	19.0	FR1	0	R1063C
2017.502	3.734	1160757	PROB	3.711	n/a	n/a	-999	18	[7, 7, 2]	16.0	FR1	0	R1063C
2021.236	7.485	1162624	PROB	7.465	n/a	n/a	-999	18	[5, 8, 9]	22.0	FR1	0	R1063C
2028.721	5.756	1166366	PROB	5.756	n/a	n/a	-999	18	[5, 1, 2]	8.0	FR1	0	R1063C
2034.477	0.012	1169244	STOP	n/a	n/a	n/a	-999	18	[-999, -999, -999]	n/a	FR1	0	R1063C
2034.489	1.2	1169250	DISTRACT_END	n/a	n/a	n/a	-999	18	[0, 0, 0]	n/a	FR1	0	R1063C
2035.689	0.854	1169850	REC_START	n/a	n/a	n/a	-999	18	[0, 0, 0]	n/a	FR1	0	R1063C
2036.543	1.032	1170277	REC_WORD	0.854	n/a	SCHOOL	1	18	[0, 0, 0]	n/a	FR1	0	R1063C
2037.575	1.191	1170793	REC_WORD	1.886	n/a	PEN	-999	18	[0, 0, 0]	n/a	FR1	0	R1063C
2038.766	0.43	1171388	REC_WORD	3.077	n/a	THUMB	5	18	[0, 0, 0]	n/a	FR1	0	R1063C
2039.196	1.818	1171603	REC_WORD	3.507	n/a	BOY	6	18	[0, 0, 0]	n/a	FR1	0	R1063C
2041.014	0.472	1172512	REC_WORD_VV	5.325	n/a	<>	-999	18	[0, 0, 0]	n/a	FR1	0	R1063C
2041.486	4.769	1172748	REC_WORD_VV	5.797	n/a	<>	-999	18	[0, 0, 0]	n/a	FR1	0	R1063C
2046.255	3.714	1175132	REC_WORD_VV	10.566	n/a	<>	-999	18	[0, 0, 0]	n/a	FR1	0	R1063C
2049.969	4.042	1176989	REC_WORD	14.28	n/a	PIN	2	18	[0, 0, 0]	n/a	FR1	0	R1063C
2054.011	5.384	1179010	REC_WORD_VV	18.322	n/a	<>	-999	18	[0, 0, 0]	n/a	FR1	0	R1063C
2059.395	6.305	1181702	REC_WORD_VV	23.706	n/a	<>	-999	18	[0, 0, 0]	n/a	FR1	0	R1063C
2065.7	7.863	1184854	REC_END	n/a	n/a	n/a	-999	18	[0, 0, 0]	n/a	FR1	0	R1063C
2073.563	0.0	1188785	TRIAL	n/a	n/a	n/a	-999	19	[0, 0, 0]	n/a	FR1	0	R1063C
2073.563	10.0	1188785	COUNTDOWN_START	n/a	n/a	n/a	-999	19	[0, 0, 0]	n/a	FR1	0	R1063C
2083.991	0.007	1193999	COUNTDOWN_END	n/a	n/a	n/a	-999	19	[0, 0, 0]	n/a	FR1	0	R1063C
2083.998	1.6	1194002	ORIENT	n/a	n/a	n/a	-999	19	[0, 0, 0]	n/a	FR1	0	R1063C
2086.448	1.6	1195227	WORD	n/a	wordpools/wordpool_EN.txt	EAR	1	19	[0, 0, 0]	n/a	FR1	0	R1063C
2089.066	1.6	1196536	WORD	n/a	wordpools/wordpool_EN.txt	HOUSE	2	19	[0, 0, 0]	n/a	FR1	0	R1063C
2091.466	1.6	1197736	WORD	n/a	wordpools/wordpool_EN.txt	DOOR	3	19	[0, 0, 0]	n/a	FR1	0	R1063C
2094.016	1.6	1199011	WORD	n/a	wordpools/wordpool_EN.txt	STREET	4	19	[0, 0, 0]	n/a	FR1	0	R1063C
2096.617	1.6	1200311	WORD	n/a	wordpools/wordpool_EN.txt	DIME	5	19	[0, 0, 0]	n/a	FR1	0	R1063C
2099.017	1.6	1201511	WORD	n/a	wordpools/wordpool_EN.txt	BED	6	19	[0, 0, 0]	n/a	FR1	0	R1063C
2101.501	1.6	1202753	WORD	n/a	wordpools/wordpool_EN.txt	CAKE	7	19	[0, 0, 0]	n/a	FR1	0	R1063C
2103.886	1.6	1203945	WORD	n/a	wordpools/wordpool_EN.txt	CART	8	19	[0, 0, 0]	n/a	FR1	0	R1063C
2106.302	1.6	1205153	WORD	n/a	wordpools/wordpool_EN.txt	FENCE	9	19	[0, 0, 0]	n/a	FR1	0	R1063C
2108.77	1.6	1206387	WORD	n/a	wordpools/wordpool_EN.txt	CUP	10	19	[0, 0, 0]	n/a	FR1	0	R1063C
2111.286	1.6	1207645	WORD	n/a	wordpools/wordpool_EN.txt	SLUSH	11	19	[0, 0, 0]	n/a	FR1	0	R1063C
2113.67	1.6	1208837	WORD	n/a	wordpools/wordpool_EN.txt	STAIR	12	19	[0, 0, 0]	n/a	FR1	0	R1063C
2115.287	0.001	1209645	DISTRACT_START	n/a	n/a	n/a	-999	19	[0, 0, 0]	n/a	FR1	0	R1063C
2115.288	0.016	1209646	START	n/a	n/a	n/a	-999	19	[-999, -999, -999]	n/a	FR1	0	R1063C
2115.304	3.867	1209654	PROB	3.845	n/a	n/a	-999	19	[7, 7, 6]	20.0	FR1	0	R1063C
2119.171	4.685	1211587	PROB	4.651	n/a	n/a	-999	19	[8, 7, 3]	18.0	FR1	0	R1063C
2123.856	3.35	1213930	PROB	3.317	n/a	n/a	-999	19	[8, 7, 1]	16.0	FR1	0	R1063C
2127.206	3.967	1215604	PROB	3.943	n/a	n/a	-999	19	[9, 2, 5]	16.0	FR1	0	R1063C
2131.173	4.593	1217588	PROB	4.593	n/a	n/a	-999	19	[5, 5, 9]	19.0	FR1	0	R1063C
2135.766	0.009	1219884	STOP	n/a	n/a	n/a	-999	19	[-999, -999, -999]	n/a	FR1	0	R1063C
2135.775	1.2	1219889	DISTRACT_END	n/a	n/a	n/a	-999	19	[0, 0, 0]	n/a	FR1	0	R1063C
2136.975	0.979	1220488	REC_START	n/a	n/a	n/a	-999	19	[0, 0, 0]	n/a	FR1	0	R1063C
2137.954	1.131	1220978	REC_WORD	0.979	n/a	EAR	1	19	[0, 0, 0]	n/a	FR1	0	R1063C
2139.085	1.259	1221543	REC_WORD	2.11	n/a	HOUSE	2	19	[0, 0, 0]	n/a	FR1	0	R1063C
2140.344	0.645	1222173	REC_WORD	3.369	n/a	DOOR	3	19	[0, 0, 0]	n/a	FR1	0	R1063C
2140.989	0.947	1222495	REC_WORD	4.014	n/a	STREET	4	19	[0, 0, 0]	n/a	FR1	0	R1063C
2141.936	2.608	1222969	REC_WORD	4.961	n/a	DIME	5	19	[0, 0, 0]	n/a	FR1	0	R1063C
2144.544	3.81	1224273	REC_WORD_VV	7.569	n/a	<>	-999	19	[0, 0, 0]	n/a	FR1	0	R1063C
2148.354	3.591	1226177	REC_WORD_VV	11.379	n/a	<>	-999	19	[0, 0, 0]	n/a	FR1	0	R1063C
2151.945	6.386	1227973	REC_WORD_VV	14.97	n/a	<>	-999	19	[0, 0, 0]	n/a	FR1	0	R1063C
2158.331	0.285	1231166	REC_WORD_VV	21.356	n/a	<>	-999	19	[0, 0, 0]	n/a	FR1	0	R1063C
2158.616	8.375	1231308	REC_WORD	21.641	n/a	BED	6	19	[0, 0, 0]	n/a	FR1	0	R1063C
2166.991	5.207	1235495	REC_END	n/a	n/a	n/a	-999	19	[0, 0, 0]	n/a	FR1	0	R1063C
2172.198	10.0	1238098	COUNTDOWN_START	n/a	n/a	n/a	-999	20	[0, 0, 0]	n/a	FR1	0	R1063C
2172.198	10.428	1238098	TRIAL	n/a	n/a	n/a	-999	20	[0, 0, 0]	n/a	FR1	0	R1063C
2182.626	0.007	1243312	COUNTDOWN_END	n/a	n/a	n/a	-999	20	[0, 0, 0]	n/a	FR1	0	R1063C
2182.633	1.6	1243316	ORIENT	n/a	n/a	n/a	-999	20	[0, 0, 0]	n/a	FR1	0	R1063C
2185.167	1.6	1244582	WORD	n/a	wordpools/wordpool_EN.txt	STONE	1	20	[0, 0, 0]	n/a	FR1	0	R1063C
2187.701	1.6	1245849	WORD	n/a	wordpools/wordpool_EN.txt	FOAM	2	20	[0, 0, 0]	n/a	FR1	0	R1063C
2190.151	1.6	1247074	WORD	n/a	wordpools/wordpool_EN.txt	CUBE	3	20	[0, 0, 0]	n/a	FR1	0	R1063C
2192.568	1.6	1248283	WORD	n/a	wordpools/wordpool_EN.txt	BEACH	4	20	[0, 0, 0]	n/a	FR1	0	R1063C
2194.985	1.6	1249491	WORD	n/a	wordpools/wordpool_EN.txt	ROOF	5	20	[0, 0, 0]	n/a	FR1	0	R1063C
2197.486	1.6	1250741	WORD	n/a	wordpools/wordpool_EN.txt	CAVE	6	20	[0, 0, 0]	n/a	FR1	0	R1063C
2200.036	1.6	1252016	WORD	n/a	wordpools/wordpool_EN.txt	WEB	7	20	[0, 0, 0]	n/a	FR1	0	R1063C
2202.487	1.6	1253242	WORD	n/a	wordpools/wordpool_EN.txt	HOLE	8	20	[0, 0, 0]	n/a	FR1	0	R1063C
2204.987	1.6	1254492	WORD	n/a	wordpools/wordpool_EN.txt	BUSH	9	20	[0, 0, 0]	n/a	FR1	0	R1063C
2207.571	1.6	1255783	WORD	n/a	wordpools/wordpool_EN.txt	SNAIL	10	20	[0, 0, 0]	n/a	FR1	0	R1063C
2209.972	1.6	1256984	WORD	n/a	wordpools/wordpool_EN.txt	LAKE	11	20	[0, 0, 0]	n/a	FR1	0	R1063C
2212.422	1.6	1258209	WORD	n/a	wordpools/wordpool_EN.txt	SPEAR	12	20	[0, 0, 0]	n/a	FR1	0	R1063C
2214.039	0.001	1259017	DISTRACT_START	n/a	n/a	n/a	-999	20	[0, 0, 0]	n/a	FR1	0	R1063C
2214.04	0.016	1259018	START	n/a	n/a	n/a	-999	20	[-999, -999, -999]	n/a	FR1	0	R1063C
2214.056	4.702	1259026	PROB	4.669	n/a	n/a	-999	20	[9, 4, 5]	18.0	FR1	0	R1063C
2218.758	5.35	1261376	PROB	5.319	n/a	n/a	-999	20	[3, 9, 7]	19.0	FR1	0	R1063C
2224.108	11.625	1264051	PROB	11.625	n/a	n/a	-999	20	[8, 5, 9]	21.0	FR1	0	R1063C
2235.733	0.01	1269863	STOP	n/a	n/a	n/a	-999	20	[-999, -999, -999]	n/a	FR1	0	R1063C
2235.743	1.152	1269868	DISTRACT_END	n/a	n/a	n/a	-999	20	[0, 0, 0]	n/a	FR1	0	R1063C
2236.895	0.727	1270444	REC_START	n/a	n/a	n/a	-999	20	[0, 0, 0]	n/a	FR1	0	R1063C
2237.622	0.641	1270808	REC_WORD_VV	0.727	n/a	<>	-999	20	[0, 0, 0]	n/a	FR1	0	R1063C
2238.263	2.185	1271128	REC_WORD	1.368	n/a	LAKE	11	20	[0, 0, 0]	n/a	FR1	0	R1063C
2240.448	3.319	1272221	REC_WORD_VV	3.553	n/a	<>	-999	20	[0, 0, 0]	n/a	FR1	0	R1063C
2243.767	10.872	1273880	REC_WORD_VV	6.872	n/a	<>	-999	20	[0, 0, 0]	n/a	FR1	0	R1063C
2254.639	0.325	1279315	REC_WORD_VV	17.744	n/a	<>	-999	20	[0, 0, 0]	n/a	FR1	0	R1063C
2254.964	0.962	1279478	REC_WORD_VV	18.069	n/a	<>	-999	20	[0, 0, 0]	n/a	FR1	0	R1063C
2255.926	0.808	1279959	REC_WORD_VV	19.031	n/a	<>	-999	20	[0, 0, 0]	n/a	FR1	0	R1063C
2256.734	2.169	1280363	REC_WORD	19.839	n/a	SNAIL	10	20	[0, 0, 0]	n/a	FR1	0	R1063C
2258.903	4.667	1281447	REC_WORD_VV	22.008	n/a	<>	-999	20	[0, 0, 0]	n/a	FR1	0	R1063C
2263.57	1.089	1283781	REC_WORD_VV	26.675	n/a	<>	-999	20	[0, 0, 0]	n/a	FR1	0	R1063C
2264.659	2.247	1284325	REC_WORD_VV	27.764	n/a	<>	-999	20	[0, 0, 0]	n/a	FR1	0	R1063C
2266.906	5.661	1285448	REC_END	n/a	n/a	n/a	-999	20	[0, 0, 0]	n/a	FR1	0	R1063C
2272.567	0.0	1288279	TRIAL	n/a	n/a	n/a	-999	21	[0, 0, 0]	n/a	FR1	0	R1063C
2272.567	10.0	1288279	COUNTDOWN_START	n/a	n/a	n/a	-999	21	[0, 0, 0]	n/a	FR1	0	R1063C
2282.995	0.007	1293492	COUNTDOWN_END	n/a	n/a	n/a	-999	21	[0, 0, 0]	n/a	FR1	0	R1063C
2283.002	1.6	1293496	ORIENT	n/a	n/a	n/a	-999	21	[0, 0, 0]	n/a	FR1	0	R1063C
2285.503	1.6	1294746	WORD	n/a	wordpools/wordpool_EN.txt	BRICK	1	21	[0, 0, 0]	n/a	FR1	0	R1063C
2288.136	1.6	1296062	WORD	n/a	wordpools/wordpool_EN.txt	POLE	2	21	[0, 0, 0]	n/a	FR1	0	R1063C
2290.537	1.6	1297263	WORD	n/a	wordpools/wordpool_EN.txt	JAIL	3	21	[0, 0, 0]	n/a	FR1	0	R1063C
2292.971	1.6	1298480	WORD	n/a	wordpools/wordpool_EN.txt	MAP	4	21	[0, 0, 0]	n/a	FR1	0	R1063C
2295.421	1.6	1299705	WORD	n/a	wordpools/wordpool_EN.txt	MOON	5	21	[0, 0, 0]	n/a	FR1	0	R1063C
2297.921	1.6	1300955	WORD	n/a	wordpools/wordpool_EN.txt	CORD	6	21	[0, 0, 0]	n/a	FR1	0	R1063C
2300.422	1.6	1302205	WORD	n/a	wordpools/wordpool_EN.txt	BOMB	7	21	[0, 0, 0]	n/a	FR1	0	R1063C
2302.823	1.6	1303405	WORD	n/a	wordpools/wordpool_EN.txt	OAR	8	21	[0, 0, 0]	n/a	FR1	0	R1063C
2305.34	1.6	1304664	WORD	n/a	wordpools/wordpool_EN.txt	STAR	9	21	[0, 0, 0]	n/a	FR1	0	R1063C
2307.841	1.6	1305914	WORD	n/a	wordpools/wordpool_EN.txt	STEM	10	21	[0, 0, 0]	n/a	FR1	0	R1063C
2310.374	1.6	1307180	WORD	n/a	wordpools/wordpool_EN.txt	BAT	11	21	[0, 0, 0]	n/a	FR1	0	R1063C
2313.008	1.6	1308497	WORD	n/a	wordpools/wordpool_EN.txt	TOOTH	12	21	[0, 0, 0]	n/a	FR1	0	R1063C
2314.625	0.001	1309306	DISTRACT_START	n/a	n/a	n/a	-999	21	[0, 0, 0]	n/a	FR1	0	R1063C
2314.626	0.015	1309306	START	n/a	n/a	n/a	-999	21	[-999, -999, -999]	n/a	FR1	0	R1063C
2314.641	6.152	1309314	PROB	6.125	n/a	n/a	-999	21	[4, 8, 5]	17.0	FR1	0	R1063C
2320.793	4.717	1312390	PROB	4.692	n/a	n/a	-999	21	[6, 2, 4]	12.0	FR1	0	R1063C
2325.51	3.252	1314748	PROB	3.215	n/a	n/a	-999	21	[1, 9, 6]	16.0	FR1	0	R1063C
2328.762	3.633	1316374	PROB	3.611	n/a	n/a	-999	21	[7, 6, 4]	17.0	FR1	0	R1063C
2332.395	2.986	1318190	PROB	2.986	n/a	n/a	-999	21	[5, 1, 9]	15.0	FR1	0	R1063C
2335.381	0.014	1319683	STOP	n/a	n/a	n/a	-999	21	[-999, -999, -999]	n/a	FR1	0	R1063C
2335.395	1.134	1319690	DISTRACT_END	n/a	n/a	n/a	-999	21	[0, 0, 0]	n/a	FR1	0	R1063C
2336.529	0.891	1320257	REC_START	n/a	n/a	n/a	-999	21	[0, 0, 0]	n/a	FR1	0	R1063C
2337.42	0.854	1320702	REC_WORD_VV	0.891	n/a	<>	-999	21	[0, 0, 0]	n/a	FR1	0	R1063C
2338.274	1.064	1321129	REC_WORD	1.745	n/a	BRICK	1	21	[0, 0, 0]	n/a	FR1	0	R1063C
2339.338	1.234	1321661	REC_WORD	2.809	n/a	JAIL	3	21	[0, 0, 0]	n/a	FR1	0	R1063C
2340.572	0.908	1322278	REC_WORD	4.043	n/a	BOWL	-999	21	[0, 0, 0]	n/a	FR1	0	R1063C
2341.48	2.529	1322732	REC_WORD	4.951	n/a	LAMP	-999	21	[0, 0, 0]	n/a	FR1	0	R1063C
2344.009	5.589	1323997	REC_WORD_VV	7.48	n/a	<>	-999	21	[0, 0, 0]	n/a	FR1	0	R1063C
2349.598	4.673	1326791	REC_WORD_VV	13.069	n/a	<>	-999	21	[0, 0, 0]	n/a	FR1	0	R1063C
2354.271	0.915	1329127	REC_WORD_VV	17.742	n/a	<>	-999	21	[0, 0, 0]	n/a	FR1	0	R1063C
2355.186	0.985	1329585	REC_WORD_VV	18.657	n/a	<>	-999	21	[0, 0, 0]	n/a	FR1	0	R1063C
2356.171	0.611	1330077	REC_WORD_VV	19.642	n/a	<>	-999	21	[0, 0, 0]	n/a	FR1	0	R1063C
2356.782	0.487	1330382	REC_WORD	20.253	n/a	OAK	-999	21	[0, 0, 0]	n/a	FR1	0	R1063C
2357.269	0.65	1330626	REC_WORD	20.74	n/a	ROOF	-999	21	[0, 0, 0]	n/a	FR1	0	R1063C
2357.919	4.547	1330951	REC_WORD_VV	21.39	n/a	<>	-999	21	[0, 0, 0]	n/a	FR1	0	R1063C
2362.466	4.078	1333224	REC_WORD_VV	25.937	n/a	<>	-999	21	[0, 0, 0]	n/a	FR1	0	R1063C
2366.544	9.21	1335263	REC_END	n/a	n/a	n/a	-999	21	[0, 0, 0]	n/a	FR1	0	R1063C
2375.754	0.0	1339868	TRIAL	n/a	n/a	n/a	-999	22	[0, 0, 0]	n/a	FR1	0	R1063C
2375.754	10.0	1339868	COUNTDOWN_START	n/a	n/a	n/a	-999	22	[0, 0, 0]	n/a	FR1	0	R1063C
2386.182	0.006	1345081	COUNTDOWN_END	n/a	n/a	n/a	-999	22	[0, 0, 0]	n/a	FR1	0	R1063C
2386.188	1.6	1345084	ORIENT	n/a	n/a	n/a	-999	22	[0, 0, 0]	n/a	FR1	0	R1063C
2388.622	1.6	1346301	WORD	n/a	wordpools/wordpool_EN.txt	STEAM	1	22	[0, 0, 0]	n/a	FR1	0	R1063C
2391.005	1.6	1347492	WORD	n/a	wordpools/wordpool_EN.txt	SIGN	2	22	[0, 0, 0]	n/a	FR1	0	R1063C
2393.389	1.6	1348684	WORD	n/a	wordpools/wordpool_EN.txt	WHALE	3	22	[0, 0, 0]	n/a	FR1	0	R1063C
2395.891	1.6	1349935	WORD	n/a	wordpools/wordpool_EN.txt	SHIELD	4	22	[0, 0, 0]	n/a	FR1	0	R1063C
2398.357	1.6	1351168	WORD	n/a	wordpools/wordpool_EN.txt	ICE	5	22	[0, 0, 0]	n/a	FR1	0	R1063C
2400.758	1.6	1352369	WORD	n/a	wordpools/wordpool_EN.txt	CROW	6	22	[0, 0, 0]	n/a	FR1	0	R1063C
2403.275	1.6	1353627	WORD	n/a	wordpools/wordpool_EN.txt	AXE	7	22	[0, 0, 0]	n/a	FR1	0	R1063C
2405.658	1.6	1354818	WORD	n/a	wordpools/wordpool_EN.txt	JEEP	8	22	[0, 0, 0]	n/a	FR1	0	R1063C
2408.059	1.6	1356019	WORD	n/a	wordpools/wordpool_EN.txt	SPRING	9	22	[0, 0, 0]	n/a	FR1	0	R1063C
2410.476	1.6	1357227	WORD	n/a	wordpools/wordpool_EN.txt	SLEEVE	10	22	[0, 0, 0]	n/a	FR1	0	R1063C
2413.009	1.6	1358494	WORD	n/a	wordpools/wordpool_EN.txt	GEESE	11	22	[0, 0, 0]	n/a	FR1	0	R1063C
2415.577	1.6	1359777	WORD	n/a	wordpools/wordpool_EN.txt	GATE	12	22	[0, 0, 0]	n/a	FR1	0	R1063C
2417.194	0.001	1360586	DISTRACT_START	n/a	n/a	n/a	-999	22	[0, 0, 0]	n/a	FR1	0	R1063C
2417.195	0.016	1360586	START	n/a	n/a	n/a	-999	22	[-999, -999, -999]	n/a	FR1	0	R1063C
2417.211	5.101	1360594	PROB	5.066	n/a	n/a	-999	22	[6, 6, 7]	19.0	FR1	0	R1063C
2422.312	3.234	1363145	PROB	3.213	n/a	n/a	-999	22	[5, 4, 2]	11.0	FR1	0	R1063C
2425.546	3.8	1364761	PROB	3.771	n/a	n/a	-999	22	[3, 8, 5]	16.0	FR1	0	R1063C
2429.346	2.901	1366661	PROB	2.867	n/a	n/a	-999	22	[3, 1, 2]	6.0	FR1	0	R1063C
2432.247	3.535	1368112	PROB	3.511	n/a	n/a	-999	22	[1, 9, 4]	14.0	FR1	0	R1063C
2435.782	3.751	1369879	PROB	3.751	n/a	n/a	-999	22	[8, 6, 8]	22.0	FR1	0	R1063C
2439.533	0.015	1371754	STOP	n/a	n/a	n/a	-999	22	[-999, -999, -999]	n/a	FR1	0	R1063C
2439.548	1.118	1371762	DISTRACT_END	n/a	n/a	n/a	-999	22	[0, 0, 0]	n/a	FR1	0	R1063C
2440.666	0.9	1372321	REC_START	n/a	n/a	n/a	-999	22	[0, 0, 0]	n/a	FR1	0	R1063C
2441.566	0.961	1372771	REC_WORD	0.9	n/a	STEAM	1	22	[0, 0, 0]	n/a	FR1	0	R1063C
2442.527	2.169	1373251	REC_WORD	1.861	n/a	SIGN	2	22	[0, 0, 0]	n/a	FR1	0	R1063C
2444.696	0.756	1374336	REC_WORD	4.03	n/a	WHALE	3	22	[0, 0, 0]	n/a	FR1	0	R1063C
2445.452	2.877	1374714	REC_WORD	4.786	n/a	JEEP	8	22	[0, 0, 0]	n/a	FR1	0	R1063C
2448.329	5.432	1376152	REC_WORD_VV	7.663	n/a	<>	-999	22	[0, 0, 0]	n/a	FR1	0	R1063C
2453.761	1.264	1378868	REC_WORD_VV	13.095	n/a	<>	-999	22	[0, 0, 0]	n/a	FR1	0	R1063C
2455.025	2.363	1379500	REC_WORD_VV	14.359	n/a	<>	-999	22	[0, 0, 0]	n/a	FR1	0	R1063C
2457.388	4.839	1380681	REC_WORD	16.722	n/a	GATE	12	22	[0, 0, 0]	n/a	FR1	0	R1063C
2462.227	2.638	1383100	REC_WORD_VV	21.561	n/a	<>	-999	22	[0, 0, 0]	n/a	FR1	0	R1063C
2464.865	0.552	1384419	REC_WORD	24.199	n/a	JAIL	-999	22	[0, 0, 0]	n/a	FR1	0	R1063C
2465.417	3.737	1384695	REC_WORD_VV	24.751	n/a	<>	-999	22	[0, 0, 0]	n/a	FR1	0	R1063C
2469.154	1.188	1386564	REC_WORD_VV	28.488	n/a	<>	-999	22	[0, 0, 0]	n/a	FR1	0	R1063C
2470.342	0.335	1387158	REC_WORD_VV	29.676	n/a	<>	-999	22	[0, 0, 0]	n/a	FR1	0	R1063C
2470.677	4.811	1387325	REC_END	n/a	n/a	n/a	-999	22	[0, 0, 0]	n/a	FR1	0	R1063C
2475.488	0.0	1389730	TRIAL	n/a	n/a	n/a	-999	23	[0, 0, 0]	n/a	FR1	0	R1063C
2475.488	10.0	1389730	COUNTDOWN_START	n/a	n/a	n/a	-999	23	[0, 0, 0]	n/a	FR1	0	R1063C
2485.916	0.008	1394944	COUNTDOWN_END	n/a	n/a	n/a	-999	23	[0, 0, 0]	n/a	FR1	0	R1063C
2485.924	1.6	1394948	ORIENT	n/a	n/a	n/a	-999	23	[0, 0, 0]	n/a	FR1	0	R1063C
2488.457	1.6	1396214	WORD	n/a	wordpools/wordpool_EN.txt	HILL	1	23	[0, 0, 0]	n/a	FR1	0	R1063C
2491.024	1.6	1397498	WORD	n/a	wordpools/wordpool_EN.txt	CLOUD	2	23	[0, 0, 0]	n/a	FR1	0	R1063C
2493.525	1.6	1398748	WORD	n/a	wordpools/wordpool_EN.txt	SHOE	3	23	[0, 0, 0]	n/a	FR1	0	R1063C
2496.059	1.6	1400015	WORD	n/a	wordpools/wordpool_EN.txt	BOX	4	23	[0, 0, 0]	n/a	FR1	0	R1063C
2498.576	1.6	1401273	WORD	n/a	wordpools/wordpool_EN.txt	RICE	5	23	[0, 0, 0]	n/a	FR1	0	R1063C
2501.01	1.6	1402490	WORD	n/a	wordpools/wordpool_EN.txt	TOAST	6	23	[0, 0, 0]	n/a	FR1	0	R1063C
2503.427	1.6	1403699	WORD	n/a	wordpools/wordpool_EN.txt	RAIN	7	23	[0, 0, 0]	n/a	FR1	0	R1063C
2505.812	1.6	1404891	WORD	n/a	wordpools/wordpool_EN.txt	ELF	8	23	[0, 0, 0]	n/a	FR1	0	R1063C
2508.328	1.6	1406149	WORD	n/a	wordpools/wordpool_EN.txt	FILM	9	23	[0, 0, 0]	n/a	FR1	0	R1063C
2510.945	1.6	1407457	WORD	n/a	wordpools/wordpool_EN.txt	CHIN	10	23	[0, 0, 0]	n/a	FR1	0	R1063C
2513.362	1.6	1408666	WORD	n/a	wordpools/wordpool_EN.txt	SWAMP	11	23	[0, 0, 0]	n/a	FR1	0	R1063C
2515.746	1.6	1409858	WORD	n/a	wordpools/wordpool_EN.txt	SALT	12	23	[0, 0, 0]	n/a	FR1	0	R1063C
2517.363	0.001	1410666	DISTRACT_START	n/a	n/a	n/a	-999	23	[0, 0, 0]	n/a	FR1	0	R1063C
2517.364	0.015	1410667	START	n/a	n/a	n/a	-999	23	[-999, -999, -999]	n/a	FR1	0	R1063C
2517.379	5.469	1410674	PROB	5.435	n/a	n/a	-999	23	[8, 5, 3]	16.0	FR1	0	R1063C
2522.848	3.25	1413408	PROB	3.229	n/a	n/a	-999	23	[8, 2, 7]	16.0	FR1	0	R1063C
2526.098	5.451	1415033	PROB	5.419	n/a	n/a	-999	23	[6, 1, 3]	10.0	FR1	0	R1063C
2531.549	4.667	1417758	PROB	4.632	n/a	n/a	-999	23	[7, 9, 3]	18.0	FR1	0	R1063C
2536.216	4.789	1420092	PROB	4.789	n/a	n/a	-999	23	[4, 9, 1]	14.0	FR1	0	R1063C
2541.005	0.012	1422486	STOP	n/a	n/a	n/a	-999	23	[-999, -999, -999]	n/a	FR1	0	R1063C
2541.017	1.052	1422492	DISTRACT_END	n/a	n/a	n/a	-999	23	[0, 0, 0]	n/a	FR1	0	R1063C
2542.069	1.074	1423018	REC_START	n/a	n/a	n/a	-999	23	[0, 0, 0]	n/a	FR1	0	R1063C
2543.143	0.492	1423555	REC_WORD_VV	1.074	n/a	<>	-999	23	[0, 0, 0]	n/a	FR1	0	R1063C
2543.635	3.121	1423801	REC_WORD	1.566	n/a	HOUSE	-999	23	[0, 0, 0]	n/a	FR1	0	R1063C
2546.756	2.754	1425361	REC_WORD_VV	4.687	n/a	<>	-999	23	[0, 0, 0]	n/a	FR1	0	R1063C
2549.51	4.048	1426738	REC_WORD_VV	7.441	n/a	<>	-999	23	[0, 0, 0]	n/a	FR1	0	R1063C
2553.558	4.556	1428762	REC_WORD_VV	11.489	n/a	<>	-999	23	[0, 0, 0]	n/a	FR1	0	R1063C
2558.114	1.077	1431040	REC_WORD_VV	16.045	n/a	<>	-999	23	[0, 0, 0]	n/a	FR1	0	R1063C
2559.191	12.888	1431578	REC_WORD_VV	17.122	n/a	<>	-999	23	[0, 0, 0]	n/a	FR1	0	R1063C
2572.079	4.161	1438022	REC_END	n/a	n/a	n/a	-999	23	[0, 0, 0]	n/a	FR1	0	R1063C
2576.24	10.0	1440102	COUNTDOWN_START	n/a	n/a	n/a	-999	24	[0, 0, 0]	n/a	FR1	0	R1063C
2576.241	10.427	1440102	TRIAL	n/a	n/a	n/a	-999	24	[0, 0, 0]	n/a	FR1	0	R1063C
2586.668	0.008	1445315	COUNTDOWN_END	n/a	n/a	n/a	-999	24	[0, 0, 0]	n/a	FR1	0	R1063C
2586.676	1.6	1445319	ORIENT	n/a	n/a	n/a	-999	24	[0, 0, 0]	n/a	FR1	0	R1063C
2589.276	1.6	1446619	WORD	n/a	wordpools/wordpool_EN.txt	RUG	1	24	[0, 0, 0]	n/a	FR1	0	R1063C
2591.677	1.6	1447820	WORD	n/a	wordpools/wordpool_EN.txt	YARD	2	24	[0, 0, 0]	n/a	FR1	0	R1063C
2594.177	1.6	1449070	WORD	n/a	wordpools/wordpool_EN.txt	STOVE	3	24	[0, 0, 0]	n/a	FR1	0	R1063C
2596.727	1.6	1450345	WORD	n/a	wordpools/wordpool_EN.txt	LOCK	4	24	[0, 0, 0]	n/a	FR1	0	R1063C
2599.261	1.6	1451611	WORD	n/a	wordpools/wordpool_EN.txt	FACE	5	24	[0, 0, 0]	n/a	FR1	0	R1063C
2601.729	1.6	1452845	WORD	n/a	wordpools/wordpool_EN.txt	BOARD	6	24	[0, 0, 0]	n/a	FR1	0	R1063C
2604.129	1.6	1454045	WORD	n/a	wordpools/wordpool_EN.txt	CAGE	7	24	[0, 0, 0]	n/a	FR1	0	R1063C
2606.513	1.6	1455237	WORD	n/a	wordpools/wordpool_EN.txt	HORN	8	24	[0, 0, 0]	n/a	FR1	0	R1063C
2608.997	1.6	1456479	WORD	n/a	wordpools/wordpool_EN.txt	DRESS	9	24	[0, 0, 0]	n/a	FR1	0	R1063C
2611.597	1.6	1457779	WORD	n/a	wordpools/wordpool_EN.txt	DOCK	10	24	[0, 0, 0]	n/a	FR1	0	R1063C
2614.231	1.6	1459096	WORD	n/a	wordpools/wordpool_EN.txt	WOOD	11	24	[0, 0, 0]	n/a	FR1	0	R1063C
2616.698	1.6	1460329	WORD	n/a	wordpools/wordpool_EN.txt	TOY	12	24	[0, 0, 0]	n/a	FR1	0	R1063C
2618.315	0.001	1461138	DISTRACT_START	n/a	n/a	n/a	-999	24	[0, 0, 0]	n/a	FR1	0	R1063C
2618.316	0.016	1461138	START	n/a	n/a	n/a	-999	24	[-999, -999, -999]	n/a	FR1	0	R1063C
2618.332	5.734	1461146	PROB	5.705	n/a	n/a	-999	24	[9, 4, 1]	14.0	FR1	0	R1063C
2624.066	3.101	1464013	PROB	3.075	n/a	n/a	-999	24	[2, 2, 9]	13.0	FR1	0	R1063C
2627.167	4.1	1465563	PROB	4.078	n/a	n/a	-999	24	[6, 8, 3]	17.0	FR1	0	R1063C
2631.267	4.318	1467613	PROB	4.282	n/a	n/a	-999	24	[4, 2, 6]	12.0	FR1	0	R1063C
2635.585	3.332	1469772	PROB	3.332	n/a	n/a	-999	24	[9, 1, 5]	15.0	FR1	0	R1063C
2638.917	0.019	1471438	STOP	n/a	n/a	n/a	-999	24	[-999, -999, -999]	n/a	FR1	0	R1063C
2638.936	1.1	1471447	DISTRACT_END	n/a	n/a	n/a	-999	24	[0, 0, 0]	n/a	FR1	0	R1063C
2640.036	1.203	1471997	REC_START	n/a	n/a	n/a	-999	24	[0, 0, 0]	n/a	FR1	0	R1063C
2641.239	0.57	1472599	REC_WORD	1.203	n/a	RUG	1	24	[0, 0, 0]	n/a	FR1	0	R1063C
2641.809	0.346	1472884	REC_WORD	1.773	n/a	YARD	2	24	[0, 0, 0]	n/a	FR1	0	R1063C
2642.155	0.86	1473057	REC_WORD	2.119	n/a	STOVE	3	24	[0, 0, 0]	n/a	FR1	0	R1063C
2643.015	2.4	1473487	REC_WORD	2.979	n/a	TOY	12	24	[0, 0, 0]	n/a	FR1	0	R1063C
2645.415	17.987	1474686	REC_WORD_VV	5.379	n/a	<>	-999	24	[0, 0, 0]	n/a	FR1	0	R1063C
2663.402	3.78	1483679	REC_WORD_VV	23.366	n/a	<>	-999	24	[0, 0, 0]	n/a	FR1	0	R1063C
2667.182	2.866	1485569	REC_WORD_VV	27.146	n/a	<>	-999	24	[0, 0, 0]	n/a	FR1	0	R1063C
2670.048	5.394	1487002	REC_END	n/a	n/a	n/a	-999	24	[0, 0, 0]	n/a	FR1	0	R1063C
2675.442	10.0	1489699	COUNTDOWN_START	n/a	n/a	n/a	-999	25	[0, 0, 0]	n/a	FR1	0	R1063C
2675.443	10.427	1489699	TRIAL	n/a	n/a	n/a	-999	25	[0, 0, 0]	n/a	FR1	0	R1063C
2685.87	0.009	1494912	COUNTDOWN_END	n/a	n/a	n/a	-999	25	[0, 0, 0]	n/a	FR1	0	R1063C
2685.879	1.6	1494917	ORIENT	n/a	n/a	n/a	-999	25	[0, 0, 0]	n/a	FR1	0	R1063C
2688.395	1.6	1496175	WORD	n/a	wordpools/wordpool_EN.txt	BADGE	1	25	[0, 0, 0]	n/a	FR1	0	R1063C
2690.846	1.6	1497400	WORD	n/a	wordpools/wordpool_EN.txt	JUDGE	2	25	[0, 0, 0]	n/a	FR1	0	R1063C
2693.312	1.6	1498633	WORD	n/a	wordpools/wordpool_EN.txt	BOOK	3	25	[0, 0, 0]	n/a	FR1	0	R1063C
2695.864	1.6	1499909	WORD	n/a	wordpools/wordpool_EN.txt	PIG	4	25	[0, 0, 0]	n/a	FR1	0	R1063C
2698.33	1.6	1501142	WORD	n/a	wordpools/wordpool_EN.txt	PLANE	5	25	[0, 0, 0]	n/a	FR1	0	R1063C
2700.914	1.6	1502434	WORD	n/a	wordpools/wordpool_EN.txt	SHEET	6	25	[0, 0, 0]	n/a	FR1	0	R1063C
2703.314	1.6	1503633	WORD	n/a	wordpools/wordpool_EN.txt	CAR	7	25	[0, 0, 0]	n/a	FR1	0	R1063C
2705.799	1.6	1504876	WORD	n/a	wordpools/wordpool_EN.txt	SMOKE	8	25	[0, 0, 0]	n/a	FR1	0	R1063C
2708.332	1.6	1506142	WORD	n/a	wordpools/wordpool_EN.txt	SHEEP	9	25	[0, 0, 0]	n/a	FR1	0	R1063C
2710.949	1.6	1507451	WORD	n/a	wordpools/wordpool_EN.txt	WAVE	10	25	[0, 0, 0]	n/a	FR1	0	R1063C
2713.35	1.6	1508651	WORD	n/a	wordpools/wordpool_EN.txt	ARK	11	25	[0, 0, 0]	n/a	FR1	0	R1063C
2715.768	1.6	1509860	WORD	n/a	wordpools/wordpool_EN.txt	JET	12	25	[0, 0, 0]	n/a	FR1	0	R1063C
2717.384	0.001	1510668	DISTRACT_START	n/a	n/a	n/a	-999	25	[0, 0, 0]	n/a	FR1	0	R1063C
2717.385	0.015	1510668	START	n/a	n/a	n/a	-999	25	[-999, -999, -999]	n/a	FR1	0	R1063C
2717.4	3.751	1510676	PROB	3.717	n/a	n/a	-999	25	[4, 6, 2]	12.0	FR1	0	R1063C
2721.151	4.017	1512551	PROB	3.982	n/a	n/a	-999	25	[3, 6, 5]	14.0	FR1	0	R1063C
2725.168	7.653	1514559	PROB	7.622	n/a	n/a	-999	25	[8, 5, 4]	17.0	FR1	0	R1063C
2732.821	4.584	1518386	PROB	4.584	n/a	n/a	-999	25	[2, 7, 3]	12.0	FR1	0	R1063C
2737.405	0.016	1520677	STOP	n/a	n/a	n/a	-999	25	[-999, -999, -999]	n/a	FR1	0	R1063C
2737.421	1.067	1520685	DISTRACT_END	n/a	n/a	n/a	-999	25	[0, 0, 0]	n/a	FR1	0	R1063C
2738.488	1.61	1521219	REC_START	n/a	n/a	n/a	-999	25	[0, 0, 0]	n/a	FR1	0	R1063C
2740.098	0.979	1522024	REC_WORD	1.61	n/a	JUDGE	2	25	[0, 0, 0]	n/a	FR1	0	R1063C
2741.077	1.562	1522513	REC_WORD	2.589	n/a	BADGE	1	25	[0, 0, 0]	n/a	FR1	0	R1063C
2742.639	2.455	1523294	REC_WORD	4.151	n/a	STOVE	-999	25	[0, 0, 0]	n/a	FR1	0	R1063C
2745.094	9.592	1524522	REC_WORD_VV	6.606	n/a	<>	-999	25	[0, 0, 0]	n/a	FR1	0	R1063C
2754.686	1.0	1529317	REC_WORD_VV	16.198	n/a	<>	-999	25	[0, 0, 0]	n/a	FR1	0	R1063C
2755.686	8.99	1529817	REC_WORD_VV	17.198	n/a	<>	-999	25	[0, 0, 0]	n/a	FR1	0	R1063C
2764.676	3.827	1534312	REC_WORD_VV	26.188	n/a	<>	-999	25	[0, 0, 0]	n/a	FR1	0	R1063C
2768.503	11.176	1536225	REC_END	n/a	n/a	n/a	-999	25	[0, 0, 0]	n/a	FR1	0	R1063C
2779.679	0.0	1541813	SESS_END	n/a	n/a	n/a	-999	25	[0, 0, 0]	n/a	FR1	0	R1063C
