onset	duration	sample	trial_type	response_time	stim_file	item_name	serialpos	list	test	answer	experiment	session	subject
0.0	11.875	48653	SESS_START	n/a	n/a	n/a	-999	-999	[0, 0, 0]	n/a	FR1	3	R1065J
11.875	10.0	60528	COUNTDOWN_START	n/a	n/a	n/a	-999	-999	[0, 0, 0]	n/a	FR1	3	R1065J
22.303	3.524	70956	COUNTDOWN_END	n/a	n/a	n/a	-999	-999	[0, 0, 0]	n/a	FR1	3	R1065J
25.827	1.6	74481	PRACTICE_WORD	n/a	n/a	RING	1	-1	[0, 0, 0]	n/a	FR1	3	R1065J
28.211	1.6	76865	PRACTICE_WORD	n/a	n/a	TONGUE	2	-1	[0, 0, 0]	n/a	FR1	3	R1065J
30.778	1.6	79432	PRACTICE_WORD	n/a	n/a	WATCH	3	-1	[0, 0, 0]	n/a	FR1	3	R1065J
33.162	1.6	81816	PRACTICE_WORD	n/a	n/a	ATTIC	4	-1	[0, 0, 0]	n/a	FR1	3	R1065J
35.646	1.6	84300	PRACTICE_WORD	n/a	n/a	IRON	5	-1	[0, 0, 0]	n/a	FR1	3	R1065J
38.046	1.6	86700	PRACTICE_WORD	n/a	n/a	WAGON	6	-1	[0, 0, 0]	n/a	FR1	3	R1065J
40.614	1.6	89268	PRACTICE_WORD	n/a	n/a	RHINO	7	-1	[0, 0, 0]	n/a	FR1	3	R1065J
43.18	1.6	91834	PRACTICE_WORD	n/a	n/a	CAMEL	8	-1	[0, 0, 0]	n/a	FR1	3	R1065J
45.73	1.6	94384	PRACTICE_WORD	n/a	n/a	BEAM	9	-1	[0, 0, 0]	n/a	FR1	3	R1065J
48.214	1.6	96868	PRACTICE_WORD	n/a	n/a	COTTON	10	-1	[0, 0, 0]	n/a	FR1	3	R1065J
50.814	1.6	99468	PRACTICE_WORD	n/a	n/a	FLOOD	11	-1	[0, 0, 0]	n/a	FR1	3	R1065J
53.399	1.6	102053	PRACTICE_WORD	n/a	n/a	CHEST	12	-1	[0, 0, 0]	n/a	FR1	3	R1065J
55.015	0.0	103669	PRACTICE_DISTRACT_START	n/a	n/a	n/a	-999	-1	[0, 0, 0]	n/a	FR1	3	R1065J
55.015	0.017	103669	START	n/a	n/a	n/a	-999	-1	[-999, -999, -999]	n/a	FR1	3	R1065J
55.032	2.717	103686	PROB	2.682	n/a	n/a	-999	-1	[5, 3, 6]	11.0	FR1	3	R1065J
57.749	3.4	106403	PROB	3.365	n/a	n/a	-999	-1	[6, 8, 3]	17.0	FR1	3	R1065J
61.149	1.817	109803	PROB	1.781	n/a	n/a	-999	-1	[1, 5, 7]	13.0	FR1	3	R1065J
62.966	1.801	111620	PROB	1.764	n/a	n/a	-999	-1	[1, 4, 5]	10.0	FR1	3	R1065J
64.767	2.333	113421	PROB	2.299	n/a	n/a	-999	-1	[1, 6, 7]	14.0	FR1	3	R1065J
67.1	2.85	115754	PROB	2.83	n/a	n/a	-999	-1	[9, 3, 7]	19.0	FR1	3	R1065J
69.95	2.585	118604	PROB	2.557	n/a	n/a	-999	-1	[6, 8, 9]	23.0	FR1	3	R1065J
72.535	2.149	121189	PROB	2.123	n/a	n/a	-999	-1	[4, 4, 7]	15.0	FR1	3	R1065J
74.684	4.126	123338	PROB	4.126	n/a	n/a	-999	-1	[7, 8, 7]	25.0	FR1	3	R1065J
78.81	0.009	127464	STOP	n/a	n/a	n/a	-999	-1	[-999, -999, -999]	n/a	FR1	3	R1065J
78.819	0.653	127473	PRACTICE_DISTRACT_END	n/a	n/a	n/a	-999	-1	[0, 0, 0]	n/a	FR1	3	R1065J
79.472	30.513	128126	PRACTICE_REC_START	n/a	n/a	n/a	-999	-1	[0, 0, 0]	n/a	FR1	3	R1065J
109.985	5.556	158639	PRACTICE_REC_END	n/a	n/a	n/a	-999	-1	[0, 0, 0]	n/a	FR1	3	R1065J
115.541	0.0	164195	TRIAL	n/a	n/a	n/a	-999	1	[0, 0, 0]	n/a	FR1	3	R1065J
115.541	10.0	164195	COUNTDOWN_START	n/a	n/a	n/a	-999	1	[0, 0, 0]	n/a	FR1	3	R1065J
125.969	0.006	174623	COUNTDOWN_END	n/a	n/a	n/a	-999	1	[0, 0, 0]	n/a	FR1	3	R1065J
125.975	1.6	174629	ORIENT	n/a	n/a	n/a	-999	1	[0, 0, 0]	n/a	FR1	3	R1065J
128.493	1.6	177147	WORD	n/a	wordpools/wordpool_EN.txt	SOAP	1	1	[0, 0, 0]	n/a	FR1	3	R1065J
130.976	1.6	179630	WORD	n/a	wordpools/wordpool_EN.txt	PALM	2	1	[0, 0, 0]	n/a	FR1	3	R1065J
133.376	1.6	182030	WORD	n/a	wordpools/wordpool_EN.txt	CANE	3	1	[0, 0, 0]	n/a	FR1	3	R1065J
135.777	1.6	184431	WORD	n/a	wordpools/wordpool_EN.txt	JAR	4	1	[0, 0, 0]	n/a	FR1	3	R1065J
138.21	1.6	186865	WORD	n/a	wordpools/wordpool_EN.txt	POOL	5	1	[0, 0, 0]	n/a	FR1	3	R1065J
140.677	1.6	189332	WORD	n/a	wordpools/wordpool_EN.txt	TOAST	6	1	[0, 0, 0]	n/a	FR1	3	R1065J
143.228	1.6	191883	WORD	n/a	wordpools/wordpool_EN.txt	VASE	7	1	[0, 0, 0]	n/a	FR1	3	R1065J
145.828	1.6	194483	WORD	n/a	wordpools/wordpool_EN.txt	TRAY	8	1	[0, 0, 0]	n/a	FR1	3	R1065J
148.362	1.6	197017	WORD	n/a	wordpools/wordpool_EN.txt	COUCH	9	1	[0, 0, 0]	n/a	FR1	3	R1065J
150.912	1.6	199567	WORD	n/a	wordpools/wordpool_EN.txt	HOUSE	10	1	[0, 0, 0]	n/a	FR1	3	R1065J
153.329	1.6	201984	WORD	n/a	wordpools/wordpool_EN.txt	CUBE	11	1	[0, 0, 0]	n/a	FR1	3	R1065J
155.863	1.6	204518	WORD	n/a	wordpools/wordpool_EN.txt	VAN	12	1	[0, 0, 0]	n/a	FR1	3	R1065J
157.481	0.001	206136	DISTRACT_START	n/a	n/a	n/a	-999	1	[0, 0, 0]	n/a	FR1	3	R1065J
157.482	0.015	206137	START	n/a	n/a	n/a	-999	1	[-999, -999, -999]	n/a	FR1	3	R1065J
157.497	2.5	206152	PROB	2.47	n/a	n/a	-999	1	[7, 1, 7]	15.0	FR1	3	R1065J
159.997	2.133	208652	PROB	2.098	n/a	n/a	-999	1	[4, 4, 8]	16.0	FR1	3	R1065J
162.13	2.084	210785	PROB	2.061	n/a	n/a	-999	1	[2, 8, 9]	19.0	FR1	3	R1065J
164.214	2.85	212869	PROB	2.825	n/a	n/a	-999	1	[8, 7, 1]	16.0	FR1	3	R1065J
167.064	2.518	215719	PROB	2.496	n/a	n/a	-999	1	[2, 4, 7]	13.0	FR1	3	R1065J
169.582	1.951	218237	PROB	1.922	n/a	n/a	-999	1	[2, 6, 6]	14.0	FR1	3	R1065J
171.533	2.199	220188	PROB	2.17	n/a	n/a	-999	1	[5, 6, 6]	16.0	FR1	3	R1065J
173.732	1.868	222387	PROB	1.836	n/a	n/a	-999	1	[1, 3, 1]	5.0	FR1	3	R1065J
175.6	2.615	224255	PROB	2.615	n/a	n/a	-999	1	[9, 4, 3]	16.0	FR1	3	R1065J
178.215	0.018	226870	STOP	n/a	n/a	n/a	-999	1	[-999, -999, -999]	n/a	FR1	3	R1065J
178.233	1.168	226888	DISTRACT_END	n/a	n/a	n/a	-999	1	[0, 0, 0]	n/a	FR1	3	R1065J
179.401	1.68	228056	REC_START	n/a	n/a	n/a	-999	1	[0, 0, 0]	n/a	FR1	3	R1065J
181.081	2.023	229736	REC_WORD	1.68	n/a	CUBE	-999	1	[0, 0, 0]	n/a	FR1	3	R1065J
183.104	8.243	231759	REC_WORD	3.703	n/a	HOUSE	-999	1	[0, 0, 0]	n/a	FR1	3	R1065J
191.347	5.098	240002	REC_WORD	11.946	n/a	TRAY	-999	1	[0, 0, 0]	n/a	FR1	3	R1065J
196.445	10.269	245100	REC_WORD	17.044	n/a	TOAST	-999	1	[0, 0, 0]	n/a	FR1	3	R1065J
206.714	2.497	255369	REC_WORD	27.313	n/a	SOAP	-999	1	[0, 0, 0]	n/a	FR1	3	R1065J
209.211	0.2	257866	REC_WORD	29.81	n/a	PALM	-999	1	[0, 0, 0]	n/a	FR1	3	R1065J
209.411	4.094	258066	REC_END	n/a	n/a	n/a	-999	1	[0, 0, 0]	n/a	FR1	3	R1065J
213.505	0.0	262160	TRIAL	n/a	n/a	n/a	-999	2	[0, 0, 0]	n/a	FR1	3	R1065J
213.505	10.0	262160	COUNTDOWN_START	n/a	n/a	n/a	-999	2	[0, 0, 0]	n/a	FR1	3	R1065J
223.933	0.006	272588	COUNTDOWN_END	n/a	n/a	n/a	-999	2	[0, 0, 0]	n/a	FR1	3	R1065J
223.939	1.6	272594	ORIENT	n/a	n/a	n/a	-999	2	[0, 0, 0]	n/a	FR1	3	R1065J
226.44	1.6	275095	WORD	n/a	wordpools/wordpool_EN.txt	MOTH	1	2	[0, 0, 0]	n/a	FR1	3	R1065J
229.006	1.6	277661	WORD	n/a	wordpools/wordpool_EN.txt	WING	2	2	[0, 0, 0]	n/a	FR1	3	R1065J
231.441	1.6	280096	WORD	n/a	wordpools/wordpool_EN.txt	RIB	3	2	[0, 0, 0]	n/a	FR1	3	R1065J
234.074	1.6	282729	WORD	n/a	wordpools/wordpool_EN.txt	THREAD	4	2	[0, 0, 0]	n/a	FR1	3	R1065J
236.674	1.6	285329	WORD	n/a	wordpools/wordpool_EN.txt	NET	5	2	[0, 0, 0]	n/a	FR1	3	R1065J
239.208	1.6	287863	WORD	n/a	wordpools/wordpool_EN.txt	POND	6	2	[0, 0, 0]	n/a	FR1	3	R1065J
241.592	1.6	290247	WORD	n/a	wordpools/wordpool_EN.txt	SNAIL	7	2	[0, 0, 0]	n/a	FR1	3	R1065J
244.108	1.6	292763	WORD	n/a	wordpools/wordpool_EN.txt	FISH	8	2	[0, 0, 0]	n/a	FR1	3	R1065J
246.527	1.6	295182	WORD	n/a	wordpools/wordpool_EN.txt	STRING	9	2	[0, 0, 0]	n/a	FR1	3	R1065J
248.926	1.6	297581	WORD	n/a	wordpools/wordpool_EN.txt	HAND	10	2	[0, 0, 0]	n/a	FR1	3	R1065J
251.309	1.6	299965	WORD	n/a	wordpools/wordpool_EN.txt	OWL	11	2	[0, 0, 0]	n/a	FR1	3	R1065J
253.81	1.6	302466	WORD	n/a	wordpools/wordpool_EN.txt	SKUNK	12	2	[0, 0, 0]	n/a	FR1	3	R1065J
255.428	0.001	304084	DISTRACT_START	n/a	n/a	n/a	-999	2	[0, 0, 0]	n/a	FR1	3	R1065J
255.429	0.016	304085	START	n/a	n/a	n/a	-999	2	[-999, -999, -999]	n/a	FR1	3	R1065J
255.445	3.199	304101	PROB	3.177	n/a	n/a	-999	2	[9, 8, 3]	20.0	FR1	3	R1065J
258.644	2.033	307300	PROB	2.009	n/a	n/a	-999	2	[4, 6, 4]	14.0	FR1	3	R1065J
260.677	2.451	309333	PROB	2.423	n/a	n/a	-999	2	[7, 9, 4]	20.0	FR1	3	R1065J
263.128	2.05	311784	PROB	2.021	n/a	n/a	-999	2	[8, 3, 4]	15.0	FR1	3	R1065J
265.178	2.285	313834	PROB	2.252	n/a	n/a	-999	2	[7, 4, 3]	14.0	FR1	3	R1065J
267.463	1.95	316119	PROB	1.918	n/a	n/a	-999	2	[3, 8, 3]	14.0	FR1	3	R1065J
269.413	2.683	318069	PROB	2.655	n/a	n/a	-999	2	[5, 8, 4]	15.0	FR1	3	R1065J
272.096	2.083	320752	PROB	2.052	n/a	n/a	-999	2	[8, 2, 8]	18.0	FR1	3	R1065J
274.179	3.105	322835	PROB	3.105	n/a	n/a	-999	2	[8, 8, 9]	26.0	FR1	3	R1065J
277.284	0.013	325940	STOP	n/a	n/a	n/a	-999	2	[-999, -999, -999]	n/a	FR1	3	R1065J
277.297	1.168	325953	DISTRACT_END	n/a	n/a	n/a	-999	2	[0, 0, 0]	n/a	FR1	3	R1065J
278.465	2.449	327121	REC_START	n/a	n/a	n/a	-999	2	[0, 0, 0]	n/a	FR1	3	R1065J
280.914	1.68	329570	REC_WORD	2.449	n/a	OWL	-999	2	[0, 0, 0]	n/a	FR1	3	R1065J
282.594	2.391	331250	REC_WORD	4.129	n/a	SKUNK	-999	2	[0, 0, 0]	n/a	FR1	3	R1065J
284.985	2.83	333641	REC_WORD	6.52	n/a	POND	-999	2	[0, 0, 0]	n/a	FR1	3	R1065J
287.815	4.179	336471	REC_WORD	9.35	n/a	FISH	-999	2	[0, 0, 0]	n/a	FR1	3	R1065J
291.994	13.136	340650	REC_WORD	13.529	n/a	SNAIL	-999	2	[0, 0, 0]	n/a	FR1	3	R1065J
305.13	3.345	353786	REC_WORD	26.665	n/a	STRING	-999	2	[0, 0, 0]	n/a	FR1	3	R1065J
308.475	7.36	357131	REC_END	n/a	n/a	n/a	-999	2	[0, 0, 0]	n/a	FR1	3	R1065J
315.835	10.0	364491	COUNTDOWN_START	n/a	n/a	n/a	-999	3	[0, 0, 0]	n/a	FR1	3	R1065J
315.836	10.427	364492	TRIAL	n/a	n/a	n/a	-999	3	[0, 0, 0]	n/a	FR1	3	R1065J
326.263	0.007	374919	COUNTDOWN_END	n/a	n/a	n/a	-999	3	[0, 0, 0]	n/a	FR1	3	R1065J
326.27	1.6	374926	ORIENT	n/a	n/a	n/a	-999	3	[0, 0, 0]	n/a	FR1	3	R1065J
328.671	1.6	377327	WORD	n/a	wordpools/wordpool_EN.txt	MOUTH	1	3	[0, 0, 0]	n/a	FR1	3	R1065J
331.237	1.6	379893	WORD	n/a	wordpools/wordpool_EN.txt	DOLL	2	3	[0, 0, 0]	n/a	FR1	3	R1065J
333.622	1.6	382278	WORD	n/a	wordpools/wordpool_EN.txt	SEAL	3	3	[0, 0, 0]	n/a	FR1	3	R1065J
336.205	1.6	384861	WORD	n/a	wordpools/wordpool_EN.txt	WEED	4	3	[0, 0, 0]	n/a	FR1	3	R1065J
338.59	1.6	387246	WORD	n/a	wordpools/wordpool_EN.txt	CLOWN	5	3	[0, 0, 0]	n/a	FR1	3	R1065J
341.089	1.6	389745	WORD	n/a	wordpools/wordpool_EN.txt	TIE	6	3	[0, 0, 0]	n/a	FR1	3	R1065J
343.507	1.6	392163	WORD	n/a	wordpools/wordpool_EN.txt	PET	7	3	[0, 0, 0]	n/a	FR1	3	R1065J
345.973	1.6	394629	WORD	n/a	wordpools/wordpool_EN.txt	CLOTH	8	3	[0, 0, 0]	n/a	FR1	3	R1065J
348.373	1.6	397029	WORD	n/a	wordpools/wordpool_EN.txt	FAN	9	3	[0, 0, 0]	n/a	FR1	3	R1065J
350.907	1.6	399563	WORD	n/a	wordpools/wordpool_EN.txt	WOLF	10	3	[0, 0, 0]	n/a	FR1	3	R1065J
353.408	1.6	402064	WORD	n/a	wordpools/wordpool_EN.txt	RAT	11	3	[0, 0, 0]	n/a	FR1	3	R1065J
355.808	1.6	404464	WORD	n/a	wordpools/wordpool_EN.txt	SOCK	12	3	[0, 0, 0]	n/a	FR1	3	R1065J
357.409	0.001	406065	DISTRACT_START	n/a	n/a	n/a	-999	3	[0, 0, 0]	n/a	FR1	3	R1065J
357.41	0.016	406066	START	n/a	n/a	n/a	-999	3	[-999, -999, -999]	n/a	FR1	3	R1065J
357.426	2.499	406082	PROB	2.472	n/a	n/a	-999	3	[4, 2, 1]	7.0	FR1	3	R1065J
359.925	2.0	408581	PROB	1.965	n/a	n/a	-999	3	[1, 9, 6]	16.0	FR1	3	R1065J
361.925	2.084	410581	PROB	2.061	n/a	n/a	-999	3	[4, 5, 3]	12.0	FR1	3	R1065J
364.009	2.034	412665	PROB	2.001	n/a	n/a	-999	3	[3, 2, 8]	13.0	FR1	3	R1065J
366.043	1.666	414700	PROB	1.631	n/a	n/a	-999	3	[1, 6, 6]	13.0	FR1	3	R1065J
367.709	6.085	416366	PROB	6.06	n/a	n/a	-999	3	[6, 8, 9]	23.0	FR1	3	R1065J
373.794	1.784	422451	PROB	1.752	n/a	n/a	-999	3	[5, 5, 7]	17.0	FR1	3	R1065J
375.578	1.969	424235	PROB	1.969	n/a	n/a	-999	3	[2, 9, 9]	20.0	FR1	3	R1065J
377.547	0.015	426204	STOP	n/a	n/a	n/a	-999	3	[-999, -999, -999]	n/a	FR1	3	R1065J
377.562	1.15	426219	DISTRACT_END	n/a	n/a	n/a	-999	3	[0, 0, 0]	n/a	FR1	3	R1065J
378.712	2.719	427369	REC_START	n/a	n/a	n/a	-999	3	[0, 0, 0]	n/a	FR1	3	R1065J
381.431	1.754	430088	REC_WORD_VV	2.719	n/a	<>	-999	3	[0, 0, 0]	n/a	FR1	3	R1065J
383.185	6.653	431842	REC_WORD	4.473	n/a	WEED	-999	3	[0, 0, 0]	n/a	FR1	3	R1065J
389.838	13.719	438495	REC_WORD_VV	11.126	n/a	<>	-999	3	[0, 0, 0]	n/a	FR1	3	R1065J
403.557	1.314	452214	REC_WORD	24.845	n/a	MOUTH	-999	3	[0, 0, 0]	n/a	FR1	3	R1065J
404.871	3.851	453528	REC_WORD	26.159	n/a	CLOWN	-999	3	[0, 0, 0]	n/a	FR1	3	R1065J
408.722	4.61	457379	REC_END	n/a	n/a	n/a	-999	3	[0, 0, 0]	n/a	FR1	3	R1065J
413.332	10.0	461989	COUNTDOWN_START	n/a	n/a	n/a	-999	4	[0, 0, 0]	n/a	FR1	3	R1065J
413.332	10.428	461989	TRIAL	n/a	n/a	n/a	-999	4	[0, 0, 0]	n/a	FR1	3	R1065J
423.76	0.007	472417	COUNTDOWN_END	n/a	n/a	n/a	-999	4	[0, 0, 0]	n/a	FR1	3	R1065J
423.767	1.6	472424	ORIENT	n/a	n/a	n/a	-999	4	[0, 0, 0]	n/a	FR1	3	R1065J
426.234	1.6	474891	WORD	n/a	wordpools/wordpool_EN.txt	GATE	1	4	[0, 0, 0]	n/a	FR1	3	R1065J
428.835	1.6	477492	WORD	n/a	wordpools/wordpool_EN.txt	HILL	2	4	[0, 0, 0]	n/a	FR1	3	R1065J
431.403	1.6	480060	WORD	n/a	wordpools/wordpool_EN.txt	MULE	3	4	[0, 0, 0]	n/a	FR1	3	R1065J
433.802	1.6	482459	WORD	n/a	wordpools/wordpool_EN.txt	NEST	4	4	[0, 0, 0]	n/a	FR1	3	R1065J
436.336	1.6	484993	WORD	n/a	wordpools/wordpool_EN.txt	DOG	5	4	[0, 0, 0]	n/a	FR1	3	R1065J
438.903	1.6	487560	WORD	n/a	wordpools/wordpool_EN.txt	GEESE	6	4	[0, 0, 0]	n/a	FR1	3	R1065J
441.521	1.6	490178	WORD	n/a	wordpools/wordpool_EN.txt	CHIEF	7	4	[0, 0, 0]	n/a	FR1	3	R1065J
443.92	1.6	492577	WORD	n/a	wordpools/wordpool_EN.txt	EEL	8	4	[0, 0, 0]	n/a	FR1	3	R1065J
446.472	1.6	495129	WORD	n/a	wordpools/wordpool_EN.txt	GOAT	9	4	[0, 0, 0]	n/a	FR1	3	R1065J
448.921	1.6	497578	WORD	n/a	wordpools/wordpool_EN.txt	SKY	10	4	[0, 0, 0]	n/a	FR1	3	R1065J
451.489	1.6	500146	WORD	n/a	wordpools/wordpool_EN.txt	DUCK	11	4	[0, 0, 0]	n/a	FR1	3	R1065J
453.905	1.6	502562	WORD	n/a	wordpools/wordpool_EN.txt	SWORD	12	4	[0, 0, 0]	n/a	FR1	3	R1065J
455.506	0.001	504163	DISTRACT_START	n/a	n/a	n/a	-999	4	[0, 0, 0]	n/a	FR1	3	R1065J
455.507	0.016	504164	START	n/a	n/a	n/a	-999	4	[-999, -999, -999]	n/a	FR1	3	R1065J
455.523	2.532	504180	PROB	2.5	n/a	n/a	-999	4	[4, 8, 9]	21.0	FR1	3	R1065J
458.055	2.084	506712	PROB	2.056	n/a	n/a	-999	4	[1, 5, 9]	15.0	FR1	3	R1065J
460.139	2.351	508796	PROB	2.326	n/a	n/a	-999	4	[5, 7, 7]	19.0	FR1	3	R1065J
462.49	1.967	511147	PROB	1.934	n/a	n/a	-999	4	[2, 1, 7]	10.0	FR1	3	R1065J
464.457	1.833	513114	PROB	1.798	n/a	n/a	-999	4	[7, 7, 2]	16.0	FR1	3	R1065J
466.29	3.667	514947	PROB	3.645	n/a	n/a	-999	4	[2, 2, 7]	11.0	FR1	3	R1065J
469.957	3.2	518614	PROB	3.178	n/a	n/a	-999	4	[5, 9, 4]	18.0	FR1	3	R1065J
473.157	2.051	521814	PROB	2.026	n/a	n/a	-999	4	[6, 7, 4]	17.0	FR1	3	R1065J
475.208	2.175	523865	PROB	2.175	n/a	n/a	-999	4	[2, 7, 6]	15.0	FR1	3	R1065J
477.383	0.01	526040	STOP	n/a	n/a	n/a	-999	4	[-999, -999, -999]	n/a	FR1	3	R1065J
477.393	1.15	526050	DISTRACT_END	n/a	n/a	n/a	-999	4	[0, 0, 0]	n/a	FR1	3	R1065J
478.543	2.152	527200	REC_START	n/a	n/a	n/a	-999	4	[0, 0, 0]	n/a	FR1	3	R1065J
480.695	1.856	529353	REC_WORD	2.152	n/a	DOG	-999	4	[0, 0, 0]	n/a	FR1	3	R1065J
482.551	2.701	531209	REC_WORD	4.008	n/a	HILL	-999	4	[0, 0, 0]	n/a	FR1	3	R1065J
485.252	2.808	533910	REC_WORD	6.709	n/a	DUCK	-999	4	[0, 0, 0]	n/a	FR1	3	R1065J
488.06	20.497	536718	REC_WORD	9.517	n/a	SKY	-999	4	[0, 0, 0]	n/a	FR1	3	R1065J
508.557	2.689	557215	REC_END	n/a	n/a	n/a	-999	4	[0, 0, 0]	n/a	FR1	3	R1065J
511.246	0.0	559904	TRIAL	n/a	n/a	n/a	-999	5	[0, 0, 0]	n/a	FR1	3	R1065J
511.246	10.0	559904	COUNTDOWN_START	n/a	n/a	n/a	-999	5	[0, 0, 0]	n/a	FR1	3	R1065J
521.674	0.007	570332	COUNTDOWN_END	n/a	n/a	n/a	-999	5	[0, 0, 0]	n/a	FR1	3	R1065J
521.681	1.6	570339	ORIENT	n/a	n/a	n/a	-999	5	[0, 0, 0]	n/a	FR1	3	R1065J
524.098	1.6	572756	WORD	n/a	wordpools/wordpool_EN.txt	HAWK	1	5	[0, 0, 0]	n/a	FR1	3	R1065J
526.665	1.6	575323	WORD	n/a	wordpools/wordpool_EN.txt	MAIL	2	5	[0, 0, 0]	n/a	FR1	3	R1065J
529.282	1.6	577940	WORD	n/a	wordpools/wordpool_EN.txt	BOOK	3	5	[0, 0, 0]	n/a	FR1	3	R1065J
531.682	1.6	580340	WORD	n/a	wordpools/wordpool_EN.txt	STORE	4	5	[0, 0, 0]	n/a	FR1	3	R1065J
534.083	1.6	582741	WORD	n/a	wordpools/wordpool_EN.txt	HORSE	5	5	[0, 0, 0]	n/a	FR1	3	R1065J
536.484	1.6	585142	WORD	n/a	wordpools/wordpool_EN.txt	CORD	6	5	[0, 0, 0]	n/a	FR1	3	R1065J
538.867	1.6	587525	WORD	n/a	wordpools/wordpool_EN.txt	BAT	7	5	[0, 0, 0]	n/a	FR1	3	R1065J
541.435	1.6	590093	WORD	n/a	wordpools/wordpool_EN.txt	PEA	8	5	[0, 0, 0]	n/a	FR1	3	R1065J
543.984	1.6	592642	WORD	n/a	wordpools/wordpool_EN.txt	JET	9	5	[0, 0, 0]	n/a	FR1	3	R1065J
546.452	1.6	595110	WORD	n/a	wordpools/wordpool_EN.txt	JAIL	10	5	[0, 0, 0]	n/a	FR1	3	R1065J
548.968	1.6	597626	WORD	n/a	wordpools/wordpool_EN.txt	TOOL	11	5	[0, 0, 0]	n/a	FR1	3	R1065J
551.57	1.6	600228	WORD	n/a	wordpools/wordpool_EN.txt	SHEET	12	5	[0, 0, 0]	n/a	FR1	3	R1065J
553.186	0.001	601844	DISTRACT_START	n/a	n/a	n/a	-999	5	[0, 0, 0]	n/a	FR1	3	R1065J
553.187	0.015	601845	START	n/a	n/a	n/a	-999	5	[-999, -999, -999]	n/a	FR1	3	R1065J
553.202	3.718	601860	PROB	3.683	n/a	n/a	-999	5	[8, 9, 9]	26.0	FR1	3	R1065J
556.92	2.267	605578	PROB	2.237	n/a	n/a	-999	5	[1, 1, 9]	11.0	FR1	3	R1065J
559.187	2.317	607845	PROB	2.283	n/a	n/a	-999	5	[9, 2, 4]	15.0	FR1	3	R1065J
561.504	2.583	610162	PROB	2.556	n/a	n/a	-999	5	[3, 5, 3]	11.0	FR1	3	R1065J
564.087	1.85	612745	PROB	1.814	n/a	n/a	-999	5	[3, 6, 1]	10.0	FR1	3	R1065J
565.937	2.468	614595	PROB	2.435	n/a	n/a	-999	5	[3, 2, 2]	7.0	FR1	3	R1065J
568.405	2.316	617063	PROB	2.296	n/a	n/a	-999	5	[7, 5, 8]	23.0	FR1	3	R1065J
570.721	2.184	619379	PROB	2.155	n/a	n/a	-999	5	[2, 1, 5]	8.0	FR1	3	R1065J
572.905	2.195	621563	PROB	2.195	n/a	n/a	-999	5	[8, 3, 4]	15.0	FR1	3	R1065J
575.1	0.005	623758	STOP	n/a	n/a	n/a	-999	5	[-999, -999, -999]	n/a	FR1	3	R1065J
575.105	1.185	623763	DISTRACT_END	n/a	n/a	n/a	-999	5	[0, 0, 0]	n/a	FR1	3	R1065J
576.29	2.894	624948	REC_START	n/a	n/a	n/a	-999	5	[0, 0, 0]	n/a	FR1	3	R1065J
579.184	4.096	627842	REC_WORD	2.894	n/a	JAIL	-999	5	[0, 0, 0]	n/a	FR1	3	R1065J
583.28	23.021	631938	REC_WORD	6.99	n/a	TOOL	-999	5	[0, 0, 0]	n/a	FR1	3	R1065J
606.301	9.426	654960	REC_END	n/a	n/a	n/a	-999	5	[0, 0, 0]	n/a	FR1	3	R1065J
615.727	10.0	664386	COUNTDOWN_START	n/a	n/a	n/a	-999	6	[0, 0, 0]	n/a	FR1	3	R1065J
615.728	10.427	664387	TRIAL	n/a	n/a	n/a	-999	6	[0, 0, 0]	n/a	FR1	3	R1065J
626.155	0.008	674814	COUNTDOWN_END	n/a	n/a	n/a	-999	6	[0, 0, 0]	n/a	FR1	3	R1065J
626.163	1.6	674822	ORIENT	n/a	n/a	n/a	-999	6	[0, 0, 0]	n/a	FR1	3	R1065J
628.597	1.6	677256	WORD	n/a	wordpools/wordpool_EN.txt	HOLE	1	6	[0, 0, 0]	n/a	FR1	3	R1065J
631.163	1.6	679822	WORD	n/a	wordpools/wordpool_EN.txt	BED	2	6	[0, 0, 0]	n/a	FR1	3	R1065J
633.647	1.6	682306	WORD	n/a	wordpools/wordpool_EN.txt	TRAIN	3	6	[0, 0, 0]	n/a	FR1	3	R1065J
636.147	1.6	684806	WORD	n/a	wordpools/wordpool_EN.txt	CART	4	6	[0, 0, 0]	n/a	FR1	3	R1065J
638.764	1.6	687423	WORD	n/a	wordpools/wordpool_EN.txt	MAT	5	6	[0, 0, 0]	n/a	FR1	3	R1065J
641.315	1.6	689974	WORD	n/a	wordpools/wordpool_EN.txt	MAZE	6	6	[0, 0, 0]	n/a	FR1	3	R1065J
643.932	1.6	692591	WORD	n/a	wordpools/wordpool_EN.txt	HAT	7	6	[0, 0, 0]	n/a	FR1	3	R1065J
646.5	1.6	695159	WORD	n/a	wordpools/wordpool_EN.txt	PARK	8	6	[0, 0, 0]	n/a	FR1	3	R1065J
648.982	1.6	697641	WORD	n/a	wordpools/wordpool_EN.txt	TRUCK	9	6	[0, 0, 0]	n/a	FR1	3	R1065J
651.417	1.6	700076	WORD	n/a	wordpools/wordpool_EN.txt	SQUARE	10	6	[0, 0, 0]	n/a	FR1	3	R1065J
653.866	1.6	702525	WORD	n/a	wordpools/wordpool_EN.txt	PRINCE	11	6	[0, 0, 0]	n/a	FR1	3	R1065J
656.451	1.6	705110	WORD	n/a	wordpools/wordpool_EN.txt	HOOF	12	6	[0, 0, 0]	n/a	FR1	3	R1065J
658.067	0.001	706726	DISTRACT_START	n/a	n/a	n/a	-999	6	[0, 0, 0]	n/a	FR1	3	R1065J
658.068	0.016	706727	START	n/a	n/a	n/a	-999	6	[-999, -999, -999]	n/a	FR1	3	R1065J
658.084	2.817	706743	PROB	2.782	n/a	n/a	-999	6	[5, 7, 3]	15.0	FR1	3	R1065J
660.901	2.518	709560	PROB	2.486	n/a	n/a	-999	6	[5, 2, 7]	14.0	FR1	3	R1065J
663.419	1.866	712078	PROB	1.831	n/a	n/a	-999	6	[4, 2, 6]	12.0	FR1	3	R1065J
665.285	2.083	713944	PROB	2.053	n/a	n/a	-999	6	[9, 8, 2]	19.0	FR1	3	R1065J
667.368	2.218	716027	PROB	2.195	n/a	n/a	-999	6	[4, 8, 6]	18.0	FR1	3	R1065J
669.586	5.901	718245	PROB	5.873	n/a	n/a	-999	6	[9, 7, 8]	24.0	FR1	3	R1065J
675.487	2.3	724146	PROB	2.275	n/a	n/a	-999	6	[6, 5, 1]	12.0	FR1	3	R1065J
677.787	2.591	726446	PROB	2.591	n/a	n/a	-999	6	[5, 9, 8]	23.0	FR1	3	R1065J
680.378	0.01	729037	STOP	n/a	n/a	n/a	-999	6	[-999, -999, -999]	n/a	FR1	3	R1065J
680.388	1.184	729047	DISTRACT_END	n/a	n/a	n/a	-999	6	[0, 0, 0]	n/a	FR1	3	R1065J
681.572	5.256	730231	REC_START	n/a	n/a	n/a	-999	6	[0, 0, 0]	n/a	FR1	3	R1065J
686.828	1.754	735487	REC_WORD	5.256	n/a	BED	-999	6	[0, 0, 0]	n/a	FR1	3	R1065J
688.582	2.249	737241	REC_WORD	7.01	n/a	HOLE	-999	6	[0, 0, 0]	n/a	FR1	3	R1065J
690.831	2.882	739490	REC_WORD	9.259	n/a	TRUCK	-999	6	[0, 0, 0]	n/a	FR1	3	R1065J
693.713	9.656	742372	REC_WORD	12.141	n/a	MAZE	-999	6	[0, 0, 0]	n/a	FR1	3	R1065J
703.369	8.215	752028	REC_WORD	21.797	n/a	MAT	-999	6	[0, 0, 0]	n/a	FR1	3	R1065J
711.584	2.358	760244	REC_END	n/a	n/a	n/a	-999	6	[0, 0, 0]	n/a	FR1	3	R1065J
713.942	0.0	762602	TRIAL	n/a	n/a	n/a	-999	7	[0, 0, 0]	n/a	FR1	3	R1065J
713.942	10.0	762602	COUNTDOWN_START	n/a	n/a	n/a	-999	7	[0, 0, 0]	n/a	FR1	3	R1065J
724.37	0.006	773030	COUNTDOWN_END	n/a	n/a	n/a	-999	7	[0, 0, 0]	n/a	FR1	3	R1065J
724.376	1.6	773036	ORIENT	n/a	n/a	n/a	-999	7	[0, 0, 0]	n/a	FR1	3	R1065J
726.777	1.6	775437	WORD	n/a	wordpools/wordpool_EN.txt	SUN	1	7	[0, 0, 0]	n/a	FR1	3	R1065J
729.311	1.6	777971	WORD	n/a	wordpools/wordpool_EN.txt	CAPE	2	7	[0, 0, 0]	n/a	FR1	3	R1065J
731.927	1.6	780587	WORD	n/a	wordpools/wordpool_EN.txt	BATH	3	7	[0, 0, 0]	n/a	FR1	3	R1065J
734.479	1.6	783139	WORD	n/a	wordpools/wordpool_EN.txt	SAIL	4	7	[0, 0, 0]	n/a	FR1	3	R1065J
736.962	1.6	785622	WORD	n/a	wordpools/wordpool_EN.txt	LEG	5	7	[0, 0, 0]	n/a	FR1	3	R1065J
739.58	1.6	788240	WORD	n/a	wordpools/wordpool_EN.txt	ROSE	6	7	[0, 0, 0]	n/a	FR1	3	R1065J
742.079	1.6	790739	WORD	n/a	wordpools/wordpool_EN.txt	RUG	7	7	[0, 0, 0]	n/a	FR1	3	R1065J
744.663	1.6	793323	WORD	n/a	wordpools/wordpool_EN.txt	MOOSE	8	7	[0, 0, 0]	n/a	FR1	3	R1065J
747.18	1.6	795840	WORD	n/a	wordpools/wordpool_EN.txt	BOAT	9	7	[0, 0, 0]	n/a	FR1	3	R1065J
749.68	1.6	798340	WORD	n/a	wordpools/wordpool_EN.txt	ICE	10	7	[0, 0, 0]	n/a	FR1	3	R1065J
752.164	1.6	800824	WORD	n/a	wordpools/wordpool_EN.txt	CAKE	11	7	[0, 0, 0]	n/a	FR1	3	R1065J
754.664	1.6	803324	WORD	n/a	wordpools/wordpool_EN.txt	FENCE	12	7	[0, 0, 0]	n/a	FR1	3	R1065J
756.281	0.001	804941	DISTRACT_START	n/a	n/a	n/a	-999	7	[0, 0, 0]	n/a	FR1	3	R1065J
756.282	0.016	804942	START	n/a	n/a	n/a	-999	7	[-999, -999, -999]	n/a	FR1	3	R1065J
756.298	2.467	804958	PROB	2.438	n/a	n/a	-999	7	[3, 2, 6]	11.0	FR1	3	R1065J
758.765	1.834	807425	PROB	1.811	n/a	n/a	-999	7	[6, 4, 5]	15.0	FR1	3	R1065J
760.599	3.133	809259	PROB	3.104	n/a	n/a	-999	7	[8, 4, 7]	19.0	FR1	3	R1065J
763.732	2.668	812392	PROB	2.635	n/a	n/a	-999	7	[7, 4, 9]	20.0	FR1	3	R1065J
766.4	2.184	815060	PROB	2.16	n/a	n/a	-999	7	[1, 2, 1]	4.0	FR1	3	R1065J
768.584	1.85	817244	PROB	1.816	n/a	n/a	-999	7	[4, 5, 3]	12.0	FR1	3	R1065J
770.434	2.034	819094	PROB	1.998	n/a	n/a	-999	7	[7, 1, 6]	14.0	FR1	3	R1065J
772.468	2.199	821128	PROB	2.171	n/a	n/a	-999	7	[6, 1, 2]	9.0	FR1	3	R1065J
774.667	2.044	823327	PROB	2.044	n/a	n/a	-999	7	[6, 7, 8]	21.0	FR1	3	R1065J
776.711	0.006	825371	STOP	n/a	n/a	n/a	-999	7	[-999, -999, -999]	n/a	FR1	3	R1065J
776.717	1.035	825377	DISTRACT_END	n/a	n/a	n/a	-999	7	[0, 0, 0]	n/a	FR1	3	R1065J
777.752	3.842	826412	REC_START	n/a	n/a	n/a	-999	7	[0, 0, 0]	n/a	FR1	3	R1065J
781.594	1.77	830254	REC_WORD	3.842	n/a	LEG	-999	7	[0, 0, 0]	n/a	FR1	3	R1065J
783.364	2.159	832024	REC_WORD	5.612	n/a	BATH	-999	7	[0, 0, 0]	n/a	FR1	3	R1065J
785.523	10.913	834183	REC_WORD	7.771	n/a	MAT	-999	7	[0, 0, 0]	n/a	FR1	3	R1065J
796.436	1.781	845096	REC_WORD	18.684	n/a	ICE	-999	7	[0, 0, 0]	n/a	FR1	3	R1065J
798.217	9.546	846877	REC_WORD	20.465	n/a	CAKE	-999	7	[0, 0, 0]	n/a	FR1	3	R1065J
807.763	3.242	856423	REC_END	n/a	n/a	n/a	-999	7	[0, 0, 0]	n/a	FR1	3	R1065J
811.005	0.0	859665	TRIAL	n/a	n/a	n/a	-999	8	[0, 0, 0]	n/a	FR1	3	R1065J
811.005	10.0	859665	COUNTDOWN_START	n/a	n/a	n/a	-999	8	[0, 0, 0]	n/a	FR1	3	R1065J
821.433	0.008	870094	COUNTDOWN_END	n/a	n/a	n/a	-999	8	[0, 0, 0]	n/a	FR1	3	R1065J
821.441	1.6	870102	ORIENT	n/a	n/a	n/a	-999	8	[0, 0, 0]	n/a	FR1	3	R1065J
823.957	1.6	872618	WORD	n/a	wordpools/wordpool_EN.txt	DRESS	1	8	[0, 0, 0]	n/a	FR1	3	R1065J
826.358	1.6	875019	WORD	n/a	wordpools/wordpool_EN.txt	LAWN	2	8	[0, 0, 0]	n/a	FR1	3	R1065J
828.741	1.6	877402	WORD	n/a	wordpools/wordpool_EN.txt	BARN	3	8	[0, 0, 0]	n/a	FR1	3	R1065J
831.158	1.6	879819	WORD	n/a	wordpools/wordpool_EN.txt	SCHOOL	4	8	[0, 0, 0]	n/a	FR1	3	R1065J
833.576	1.6	882237	WORD	n/a	wordpools/wordpool_EN.txt	VEST	5	8	[0, 0, 0]	n/a	FR1	3	R1065J
836.192	1.6	884853	WORD	n/a	wordpools/wordpool_EN.txt	MUD	6	8	[0, 0, 0]	n/a	FR1	3	R1065J
838.627	1.6	887288	WORD	n/a	wordpools/wordpool_EN.txt	ROOF	7	8	[0, 0, 0]	n/a	FR1	3	R1065J
841.093	1.6	889754	WORD	n/a	wordpools/wordpool_EN.txt	NOSE	8	8	[0, 0, 0]	n/a	FR1	3	R1065J
843.578	1.6	892239	WORD	n/a	wordpools/wordpool_EN.txt	FACE	9	8	[0, 0, 0]	n/a	FR1	3	R1065J
845.977	1.6	894638	WORD	n/a	wordpools/wordpool_EN.txt	STREET	10	8	[0, 0, 0]	n/a	FR1	3	R1065J
848.361	1.6	897022	WORD	n/a	wordpools/wordpool_EN.txt	SHARK	11	8	[0, 0, 0]	n/a	FR1	3	R1065J
850.828	1.6	899489	WORD	n/a	wordpools/wordpool_EN.txt	CHEEK	12	8	[0, 0, 0]	n/a	FR1	3	R1065J
852.445	0.001	901106	DISTRACT_START	n/a	n/a	n/a	-999	8	[0, 0, 0]	n/a	FR1	3	R1065J
852.446	0.016	901107	START	n/a	n/a	n/a	-999	8	[-999, -999, -999]	n/a	FR1	3	R1065J
852.462	3.067	901123	PROB	3.04	n/a	n/a	-999	8	[2, 6, 7]	15.0	FR1	3	R1065J
855.529	3.4	904190	PROB	3.38	n/a	n/a	-999	8	[7, 8, 5]	20.0	FR1	3	R1065J
858.929	2.733	907590	PROB	2.7	n/a	n/a	-999	8	[3, 9, 6]	18.0	FR1	3	R1065J
861.662	1.785	910323	PROB	1.752	n/a	n/a	-999	8	[1, 8, 1]	10.0	FR1	3	R1065J
863.447	2.667	912108	PROB	2.646	n/a	n/a	-999	8	[4, 3, 4]	11.0	FR1	3	R1065J
866.114	2.133	914775	PROB	2.107	n/a	n/a	-999	8	[3, 3, 6]	12.0	FR1	3	R1065J
868.247	2.117	916908	PROB	2.093	n/a	n/a	-999	8	[5, 5, 3]	13.0	FR1	3	R1065J
870.364	2.976	919025	PROB	2.976	n/a	n/a	-999	8	[8, 1, 9]	18.0	FR1	3	R1065J
873.34	0.007	922001	STOP	n/a	n/a	n/a	-999	8	[-999, -999, -999]	n/a	FR1	3	R1065J
873.347	1.069	922008	DISTRACT_END	n/a	n/a	n/a	-999	8	[0, 0, 0]	n/a	FR1	3	R1065J
874.416	2.514	923077	REC_START	n/a	n/a	n/a	-999	8	[0, 0, 0]	n/a	FR1	3	R1065J
876.93	1.431	925591	REC_WORD	2.514	n/a	BARN	-999	8	[0, 0, 0]	n/a	FR1	3	R1065J
878.361	2.493	927022	REC_WORD	3.945	n/a	LAWN	-999	8	[0, 0, 0]	n/a	FR1	3	R1065J
880.854	3.002	929515	REC_WORD	6.438	n/a	NOSE	-999	8	[0, 0, 0]	n/a	FR1	3	R1065J
883.856	4.454	932517	REC_WORD	9.44	n/a	CHEEK	-999	8	[0, 0, 0]	n/a	FR1	3	R1065J
888.31	16.116	936971	REC_WORD	13.894	n/a	FACE	-999	8	[0, 0, 0]	n/a	FR1	3	R1065J
904.426	2.426	953087	REC_END	n/a	n/a	n/a	-999	8	[0, 0, 0]	n/a	FR1	3	R1065J
906.852	0.0	955513	TRIAL	n/a	n/a	n/a	-999	9	[0, 0, 0]	n/a	FR1	3	R1065J
906.852	10.0	955513	COUNTDOWN_START	n/a	n/a	n/a	-999	9	[0, 0, 0]	n/a	FR1	3	R1065J
917.28	0.007	965941	COUNTDOWN_END	n/a	n/a	n/a	-999	9	[0, 0, 0]	n/a	FR1	3	R1065J
917.287	1.6	965948	ORIENT	n/a	n/a	n/a	-999	9	[0, 0, 0]	n/a	FR1	3	R1065J
919.704	1.6	968365	WORD	n/a	wordpools/wordpool_EN.txt	MAP	1	9	[0, 0, 0]	n/a	FR1	3	R1065J
922.221	1.6	970882	WORD	n/a	wordpools/wordpool_EN.txt	BEAR	2	9	[0, 0, 0]	n/a	FR1	3	R1065J
924.838	1.6	973499	WORD	n/a	wordpools/wordpool_EN.txt	STEM	3	9	[0, 0, 0]	n/a	FR1	3	R1065J
927.272	1.6	975933	WORD	n/a	wordpools/wordpool_EN.txt	POLE	4	9	[0, 0, 0]	n/a	FR1	3	R1065J
929.855	1.6	978516	WORD	n/a	wordpools/wordpool_EN.txt	TOOTH	5	9	[0, 0, 0]	n/a	FR1	3	R1065J
932.256	1.6	980917	WORD	n/a	wordpools/wordpool_EN.txt	INK	6	9	[0, 0, 0]	n/a	FR1	3	R1065J
934.656	1.6	983317	WORD	n/a	wordpools/wordpool_EN.txt	TEETH	7	9	[0, 0, 0]	n/a	FR1	3	R1065J
937.257	1.6	985919	WORD	n/a	wordpools/wordpool_EN.txt	SLIME	8	9	[0, 0, 0]	n/a	FR1	3	R1065J
939.857	1.6	988519	WORD	n/a	wordpools/wordpool_EN.txt	SALT	9	9	[0, 0, 0]	n/a	FR1	3	R1065J
942.442	1.6	991104	WORD	n/a	wordpools/wordpool_EN.txt	ROOT	10	9	[0, 0, 0]	n/a	FR1	3	R1065J
944.824	1.6	993486	WORD	n/a	wordpools/wordpool_EN.txt	WHEEL	11	9	[0, 0, 0]	n/a	FR1	3	R1065J
947.308	1.6	995970	WORD	n/a	wordpools/wordpool_EN.txt	BANK	12	9	[0, 0, 0]	n/a	FR1	3	R1065J
948.925	0.001	997587	DISTRACT_START	n/a	n/a	n/a	-999	9	[0, 0, 0]	n/a	FR1	3	R1065J
948.926	0.016	997588	START	n/a	n/a	n/a	-999	9	[-999, -999, -999]	n/a	FR1	3	R1065J
948.942	2.866	997604	PROB	2.844	n/a	n/a	-999	9	[7, 6, 6]	19.0	FR1	3	R1065J
951.808	2.051	1000470	PROB	2.018	n/a	n/a	-999	9	[1, 9, 8]	18.0	FR1	3	R1065J
953.859	1.751	1002521	PROB	1.72	n/a	n/a	-999	9	[1, 9, 4]	14.0	FR1	3	R1065J
955.61	2.416	1004272	PROB	2.384	n/a	n/a	-999	9	[4, 4, 9]	17.0	FR1	3	R1065J
958.026	1.834	1006688	PROB	1.808	n/a	n/a	-999	9	[6, 4, 7]	17.0	FR1	3	R1065J
959.86	2.067	1008522	PROB	2.046	n/a	n/a	-999	9	[3, 5, 3]	11.0	FR1	3	R1065J
961.927	1.8	1010589	PROB	1.771	n/a	n/a	-999	9	[1, 7, 7]	15.0	FR1	3	R1065J
963.727	2.5	1012389	PROB	2.475	n/a	n/a	-999	9	[5, 1, 2]	8.0	FR1	3	R1065J
966.227	2.352	1014889	PROB	2.328	n/a	n/a	-999	9	[5, 2, 2]	9.0	FR1	3	R1065J
968.579	2.063	1017241	PROB	2.063	n/a	n/a	-999	9	[1, 3, 5]	9.0	FR1	3	R1065J
970.642	0.019	1019304	STOP	n/a	n/a	n/a	-999	9	[-999, -999, -999]	n/a	FR1	3	R1065J
970.661	1.185	1019323	DISTRACT_END	n/a	n/a	n/a	-999	9	[0, 0, 0]	n/a	FR1	3	R1065J
971.846	1.902	1020508	REC_START	n/a	n/a	n/a	-999	9	[0, 0, 0]	n/a	FR1	3	R1065J
973.748	1.397	1022410	REC_WORD	1.902	n/a	TOOTH	-999	9	[0, 0, 0]	n/a	FR1	3	R1065J
975.145	2.979	1023807	REC_WORD	3.299	n/a	TEETH	-999	9	[0, 0, 0]	n/a	FR1	3	R1065J
978.124	3.922	1026786	REC_WORD	6.278	n/a	STEM	-999	9	[0, 0, 0]	n/a	FR1	3	R1065J
982.046	3.524	1030708	REC_WORD	10.2	n/a	ROOT	-999	9	[0, 0, 0]	n/a	FR1	3	R1065J
985.57	3.491	1034232	REC_WORD	13.724	n/a	SLIME	-999	9	[0, 0, 0]	n/a	FR1	3	R1065J
989.061	12.795	1037723	REC_WORD	17.215	n/a	BEAR	-999	9	[0, 0, 0]	n/a	FR1	3	R1065J
1001.856	3.26	1050518	REC_END	n/a	n/a	n/a	-999	9	[0, 0, 0]	n/a	FR1	3	R1065J
1005.116	10.0	1053778	COUNTDOWN_START	n/a	n/a	n/a	-999	10	[0, 0, 0]	n/a	FR1	3	R1065J
1005.116	10.428	1053778	TRIAL	n/a	n/a	n/a	-999	10	[0, 0, 0]	n/a	FR1	3	R1065J
1015.544	0.008	1064206	COUNTDOWN_END	n/a	n/a	n/a	-999	10	[0, 0, 0]	n/a	FR1	3	R1065J
1015.552	1.6	1064214	ORIENT	n/a	n/a	n/a	-999	10	[0, 0, 0]	n/a	FR1	3	R1065J
1018.085	1.6	1066747	WORD	n/a	wordpools/wordpool_EN.txt	PHONE	1	10	[0, 0, 0]	n/a	FR1	3	R1065J
1020.503	1.6	1069165	WORD	n/a	wordpools/wordpool_EN.txt	GRAPE	2	10	[0, 0, 0]	n/a	FR1	3	R1065J
1022.985	1.6	1071647	WORD	n/a	wordpools/wordpool_EN.txt	KITE	3	10	[0, 0, 0]	n/a	FR1	3	R1065J
1025.387	1.6	1074049	WORD	n/a	wordpools/wordpool_EN.txt	CONE	4	10	[0, 0, 0]	n/a	FR1	3	R1065J
1027.853	1.6	1076515	WORD	n/a	wordpools/wordpool_EN.txt	LOCK	5	10	[0, 0, 0]	n/a	FR1	3	R1065J
1030.286	1.6	1078948	WORD	n/a	wordpools/wordpool_EN.txt	MILK	6	10	[0, 0, 0]	n/a	FR1	3	R1065J
1032.67	1.6	1081332	WORD	n/a	wordpools/wordpool_EN.txt	MOUSE	7	10	[0, 0, 0]	n/a	FR1	3	R1065J
1035.204	1.6	1083866	WORD	n/a	wordpools/wordpool_EN.txt	CROWN	8	10	[0, 0, 0]	n/a	FR1	3	R1065J
1037.771	1.6	1086433	WORD	n/a	wordpools/wordpool_EN.txt	PEAR	9	10	[0, 0, 0]	n/a	FR1	3	R1065J
1040.204	1.6	1088866	WORD	n/a	wordpools/wordpool_EN.txt	SNAKE	10	10	[0, 0, 0]	n/a	FR1	3	R1065J
1042.589	1.6	1091251	WORD	n/a	wordpools/wordpool_EN.txt	SHOE	11	10	[0, 0, 0]	n/a	FR1	3	R1065J
1045.155	1.6	1093817	WORD	n/a	wordpools/wordpool_EN.txt	PEARL	12	10	[0, 0, 0]	n/a	FR1	3	R1065J
1046.772	0.001	1095434	DISTRACT_START	n/a	n/a	n/a	-999	10	[0, 0, 0]	n/a	FR1	3	R1065J
1046.773	0.016	1095435	START	n/a	n/a	n/a	-999	10	[-999, -999, -999]	n/a	FR1	3	R1065J
1046.789	2.751	1095451	PROB	2.716	n/a	n/a	-999	10	[7, 2, 5]	14.0	FR1	3	R1065J
1049.54	2.266	1098203	PROB	2.236	n/a	n/a	-999	10	[5, 9, 3]	17.0	FR1	3	R1065J
1051.806	2.434	1100469	PROB	2.41	n/a	n/a	-999	10	[9, 9, 1]	19.0	FR1	3	R1065J
1054.24	1.867	1102903	PROB	1.84	n/a	n/a	-999	10	[3, 4, 2]	9.0	FR1	3	R1065J
1056.107	1.8	1104770	PROB	1.765	n/a	n/a	-999	10	[2, 3, 8]	13.0	FR1	3	R1065J
1057.907	2.535	1106570	PROB	2.501	n/a	n/a	-999	10	[4, 4, 9]	17.0	FR1	3	R1065J
1060.442	2.083	1109105	PROB	2.062	n/a	n/a	-999	10	[2, 1, 9]	12.0	FR1	3	R1065J
1062.525	1.716	1111188	PROB	1.69	n/a	n/a	-999	10	[1, 5, 1]	7.0	FR1	3	R1065J
1064.241	2.285	1112904	PROB	2.264	n/a	n/a	-999	10	[4, 4, 8]	16.0	FR1	3	R1065J
1066.526	2.641	1115189	PROB	2.641	n/a	n/a	-999	10	[2, 1, 7]	10.0	FR1	3	R1065J
1069.167	0.008	1117830	STOP	n/a	n/a	n/a	-999	10	[-999, -999, -999]	n/a	FR1	3	R1065J
1069.175	1.051	1117838	DISTRACT_END	n/a	n/a	n/a	-999	10	[0, 0, 0]	n/a	FR1	3	R1065J
1070.226	2.675	1118889	REC_START	n/a	n/a	n/a	-999	10	[0, 0, 0]	n/a	FR1	3	R1065J
1072.901	2.008	1121564	REC_WORD	2.675	n/a	CROWN	-999	10	[0, 0, 0]	n/a	FR1	3	R1065J
1074.909	2.507	1123572	REC_WORD	4.683	n/a	PEARL	-999	10	[0, 0, 0]	n/a	FR1	3	R1065J
1077.416	3.57	1126079	REC_WORD	7.19	n/a	MOUSE	-999	10	[0, 0, 0]	n/a	FR1	3	R1065J
1080.986	19.247	1129649	REC_WORD	10.76	n/a	MILK	-999	10	[0, 0, 0]	n/a	FR1	3	R1065J
1100.233	3.814	1148896	REC_END	n/a	n/a	n/a	-999	10	[0, 0, 0]	n/a	FR1	3	R1065J
1104.047	0.0	1152710	TRIAL	n/a	n/a	n/a	-999	11	[0, 0, 0]	n/a	FR1	3	R1065J
1104.047	10.0	1152710	COUNTDOWN_START	n/a	n/a	n/a	-999	11	[0, 0, 0]	n/a	FR1	3	R1065J
1114.475	0.008	1163138	COUNTDOWN_END	n/a	n/a	n/a	-999	11	[0, 0, 0]	n/a	FR1	3	R1065J
1114.483	1.6	1163146	ORIENT	n/a	n/a	n/a	-999	11	[0, 0, 0]	n/a	FR1	3	R1065J
1117.099	1.6	1165762	WORD	n/a	wordpools/wordpool_EN.txt	TENT	1	11	[0, 0, 0]	n/a	FR1	3	R1065J
1119.583	1.6	1168246	WORD	n/a	wordpools/wordpool_EN.txt	STOOL	2	11	[0, 0, 0]	n/a	FR1	3	R1065J
1122.066	1.6	1170729	WORD	n/a	wordpools/wordpool_EN.txt	HORN	3	11	[0, 0, 0]	n/a	FR1	3	R1065J
1124.617	1.6	1173280	WORD	n/a	wordpools/wordpool_EN.txt	SHIRT	4	11	[0, 0, 0]	n/a	FR1	3	R1065J
1127.083	1.6	1175746	WORD	n/a	wordpools/wordpool_EN.txt	YARD	5	11	[0, 0, 0]	n/a	FR1	3	R1065J
1129.602	1.6	1178265	WORD	n/a	wordpools/wordpool_EN.txt	BOWL	6	11	[0, 0, 0]	n/a	FR1	3	R1065J
1132.117	1.6	1180780	WORD	n/a	wordpools/wordpool_EN.txt	SEAT	7	11	[0, 0, 0]	n/a	FR1	3	R1065J
1134.651	1.6	1183314	WORD	n/a	wordpools/wordpool_EN.txt	SLUSH	8	11	[0, 0, 0]	n/a	FR1	3	R1065J
1137.218	1.6	1185881	WORD	n/a	wordpools/wordpool_EN.txt	CHALK	9	11	[0, 0, 0]	n/a	FR1	3	R1065J
1139.635	1.6	1188298	WORD	n/a	wordpools/wordpool_EN.txt	PLATE	10	11	[0, 0, 0]	n/a	FR1	3	R1065J
1142.085	1.6	1190748	WORD	n/a	wordpools/wordpool_EN.txt	PANTS	11	11	[0, 0, 0]	n/a	FR1	3	R1065J
1144.653	1.6	1193316	WORD	n/a	wordpools/wordpool_EN.txt	BAND	12	11	[0, 0, 0]	n/a	FR1	3	R1065J
1146.27	0.0	1194933	DISTRACT_START	n/a	n/a	n/a	-999	11	[0, 0, 0]	n/a	FR1	3	R1065J
1146.27	0.016	1194933	START	n/a	n/a	n/a	-999	11	[-999, -999, -999]	n/a	FR1	3	R1065J
1146.286	2.501	1194949	PROB	2.471	n/a	n/a	-999	11	[2, 3, 1]	6.0	FR1	3	R1065J
1148.787	2.2	1197450	PROB	2.17	n/a	n/a	-999	11	[1, 4, 6]	14.0	FR1	3	R1065J
1150.987	2.083	1199650	PROB	2.058	n/a	n/a	-999	11	[7, 6, 2]	15.0	FR1	3	R1065J
1153.07	2.385	1201733	PROB	2.351	n/a	n/a	-999	11	[4, 1, 2]	7.0	FR1	3	R1065J
1155.455	3.366	1204118	PROB	3.334	n/a	n/a	-999	11	[4, 6, 8]	18.0	FR1	3	R1065J
1158.821	1.817	1207484	PROB	1.785	n/a	n/a	-999	11	[2, 5, 5]	12.0	FR1	3	R1065J
1160.638	1.684	1209301	PROB	1.662	n/a	n/a	-999	11	[3, 7, 4]	14.0	FR1	3	R1065J
1162.322	2.884	1210985	PROB	2.859	n/a	n/a	-999	11	[4, 8, 2]	14.0	FR1	3	R1065J
1165.206	2.367	1213870	PROB	2.367	n/a	n/a	-999	11	[9, 3, 4]	16.0	FR1	3	R1065J
1167.573	0.017	1216237	STOP	n/a	n/a	n/a	-999	11	[-999, -999, -999]	n/a	FR1	3	R1065J
1167.59	1.217	1216254	DISTRACT_END	n/a	n/a	n/a	-999	11	[0, 0, 0]	n/a	FR1	3	R1065J
1168.807	1.953	1217471	REC_START	n/a	n/a	n/a	-999	11	[0, 0, 0]	n/a	FR1	3	R1065J
1170.76	1.904	1219424	REC_WORD	1.953	n/a	TENT	-999	11	[0, 0, 0]	n/a	FR1	3	R1065J
1172.664	1.801	1221328	REC_WORD	3.857	n/a	YARD	-999	11	[0, 0, 0]	n/a	FR1	3	R1065J
1174.465	2.176	1223129	REC_WORD	5.658	n/a	PANTS	-999	11	[0, 0, 0]	n/a	FR1	3	R1065J
1176.641	6.505	1225305	REC_WORD	7.834	n/a	SHIRT	-999	11	[0, 0, 0]	n/a	FR1	3	R1065J
1183.146	15.671	1231810	REC_WORD	14.339	n/a	BENCH	-999	11	[0, 0, 0]	n/a	FR1	3	R1065J
1198.817	2.81	1247481	REC_END	n/a	n/a	n/a	-999	11	[0, 0, 0]	n/a	FR1	3	R1065J
1201.627	10.0	1250291	COUNTDOWN_START	n/a	n/a	n/a	-999	12	[0, 0, 0]	n/a	FR1	3	R1065J
1201.627	10.428	1250291	TRIAL	n/a	n/a	n/a	-999	12	[0, 0, 0]	n/a	FR1	3	R1065J
1212.055	0.007	1260719	COUNTDOWN_END	n/a	n/a	n/a	-999	12	[0, 0, 0]	n/a	FR1	3	R1065J
1212.062	1.6	1260726	ORIENT	n/a	n/a	n/a	-999	12	[0, 0, 0]	n/a	FR1	3	R1065J
1214.663	1.6	1263327	WORD	n/a	wordpools/wordpool_EN.txt	JUDGE	1	12	[0, 0, 0]	n/a	FR1	3	R1065J
1217.246	1.6	1265910	WORD	n/a	wordpools/wordpool_EN.txt	KEY	2	12	[0, 0, 0]	n/a	FR1	3	R1065J
1219.63	1.6	1268294	WORD	n/a	wordpools/wordpool_EN.txt	BOY	3	12	[0, 0, 0]	n/a	FR1	3	R1065J
1222.047	1.6	1270711	WORD	n/a	wordpools/wordpool_EN.txt	DESK	4	12	[0, 0, 0]	n/a	FR1	3	R1065J
1224.498	1.6	1273162	WORD	n/a	wordpools/wordpool_EN.txt	CASH	5	12	[0, 0, 0]	n/a	FR1	3	R1065J
1226.964	1.6	1275628	WORD	n/a	wordpools/wordpool_EN.txt	FLAG	6	12	[0, 0, 0]	n/a	FR1	3	R1065J
1229.449	1.6	1278113	WORD	n/a	wordpools/wordpool_EN.txt	BADGE	7	12	[0, 0, 0]	n/a	FR1	3	R1065J
1232.065	1.6	1280729	WORD	n/a	wordpools/wordpool_EN.txt	ROOM	8	12	[0, 0, 0]	n/a	FR1	3	R1065J
1234.533	1.6	1283197	WORD	n/a	wordpools/wordpool_EN.txt	CAR	9	12	[0, 0, 0]	n/a	FR1	3	R1065J
1236.982	1.6	1285646	WORD	n/a	wordpools/wordpool_EN.txt	SIGN	10	12	[0, 0, 0]	n/a	FR1	3	R1065J
1239.501	1.6	1288165	WORD	n/a	wordpools/wordpool_EN.txt	ARK	11	12	[0, 0, 0]	n/a	FR1	3	R1065J
1241.966	1.6	1290630	WORD	n/a	wordpools/wordpool_EN.txt	PIE	12	12	[0, 0, 0]	n/a	FR1	3	R1065J
1243.567	0.001	1292231	DISTRACT_START	n/a	n/a	n/a	-999	12	[0, 0, 0]	n/a	FR1	3	R1065J
1243.568	0.016	1292232	START	n/a	n/a	n/a	-999	12	[-999, -999, -999]	n/a	FR1	3	R1065J
1243.584	2.416	1292248	PROB	2.386	n/a	n/a	-999	12	[6, 2, 1]	9.0	FR1	3	R1065J
1246.0	2.117	1294664	PROB	2.09	n/a	n/a	-999	12	[9, 4, 6]	19.0	FR1	3	R1065J
1248.117	1.917	1296781	PROB	1.893	n/a	n/a	-999	12	[3, 3, 8]	14.0	FR1	3	R1065J
1250.034	2.134	1298698	PROB	2.112	n/a	n/a	-999	12	[8, 5, 3]	16.0	FR1	3	R1065J
1252.168	1.817	1300832	PROB	1.786	n/a	n/a	-999	12	[5, 5, 8]	18.0	FR1	3	R1065J
1253.985	2.133	1302649	PROB	2.113	n/a	n/a	-999	12	[3, 3, 4]	10.0	FR1	3	R1065J
1256.118	2.134	1304782	PROB	2.1	n/a	n/a	-999	12	[3, 8, 3]	14.0	FR1	3	R1065J
1258.252	1.85	1306916	PROB	1.822	n/a	n/a	-999	12	[6, 1, 4]	11.0	FR1	3	R1065J
1260.102	1.851	1308766	PROB	1.82	n/a	n/a	-999	12	[1, 7, 9]	17.0	FR1	3	R1065J
1261.953	2.065	1310617	PROB	2.065	n/a	n/a	-999	12	[4, 5, 6]	15.0	FR1	3	R1065J
1264.018	0.018	1312682	STOP	n/a	n/a	n/a	-999	12	[-999, -999, -999]	n/a	FR1	3	R1065J
1264.036	1.184	1312700	DISTRACT_END	n/a	n/a	n/a	-999	12	[0, 0, 0]	n/a	FR1	3	R1065J
1265.22	2.865	1313884	REC_START	n/a	n/a	n/a	-999	12	[0, 0, 0]	n/a	FR1	3	R1065J
1268.085	3.897	1316749	REC_WORD	2.865	n/a	BOY	-999	12	[0, 0, 0]	n/a	FR1	3	R1065J
1271.982	4.632	1320646	REC_WORD	6.762	n/a	KEY	-999	12	[0, 0, 0]	n/a	FR1	3	R1065J
1276.614	18.614	1325278	REC_WORD	11.394	n/a	CASH	-999	12	[0, 0, 0]	n/a	FR1	3	R1065J
1295.228	4.63	1343893	REC_END	n/a	n/a	n/a	-999	12	[0, 0, 0]	n/a	FR1	3	R1065J
1299.858	0.0	1348523	TRIAL	n/a	n/a	n/a	-999	13	[0, 0, 0]	n/a	FR1	3	R1065J
1299.858	10.0	1348523	COUNTDOWN_START	n/a	n/a	n/a	-999	13	[0, 0, 0]	n/a	FR1	3	R1065J
1310.286	0.007	1358951	COUNTDOWN_END	n/a	n/a	n/a	-999	13	[0, 0, 0]	n/a	FR1	3	R1065J
1310.293	1.6	1358958	ORIENT	n/a	n/a	n/a	-999	13	[0, 0, 0]	n/a	FR1	3	R1065J
1312.776	1.6	1361441	WORD	n/a	wordpools/wordpool_EN.txt	GUARD	1	13	[0, 0, 0]	n/a	FR1	3	R1065J
1315.26	1.6	1363925	WORD	n/a	wordpools/wordpool_EN.txt	SWAMP	2	13	[0, 0, 0]	n/a	FR1	3	R1065J
1317.827	1.6	1366492	WORD	n/a	wordpools/wordpool_EN.txt	STONE	3	13	[0, 0, 0]	n/a	FR1	3	R1065J
1320.261	1.6	1368926	WORD	n/a	wordpools/wordpool_EN.txt	DART	4	13	[0, 0, 0]	n/a	FR1	3	R1065J
1322.828	1.6	1371493	WORD	n/a	wordpools/wordpool_EN.txt	CALF	5	13	[0, 0, 0]	n/a	FR1	3	R1065J
1325.396	1.6	1374061	WORD	n/a	wordpools/wordpool_EN.txt	CAVE	6	13	[0, 0, 0]	n/a	FR1	3	R1065J
1327.912	1.6	1376577	WORD	n/a	wordpools/wordpool_EN.txt	CORN	7	13	[0, 0, 0]	n/a	FR1	3	R1065J
1330.446	1.6	1379111	WORD	n/a	wordpools/wordpool_EN.txt	PIG	8	13	[0, 0, 0]	n/a	FR1	3	R1065J
1332.912	1.6	1381577	WORD	n/a	wordpools/wordpool_EN.txt	CLAY	9	13	[0, 0, 0]	n/a	FR1	3	R1065J
1335.346	1.6	1384011	WORD	n/a	wordpools/wordpool_EN.txt	DEER	10	13	[0, 0, 0]	n/a	FR1	3	R1065J
1337.797	1.6	1386462	WORD	n/a	wordpools/wordpool_EN.txt	DITCH	11	13	[0, 0, 0]	n/a	FR1	3	R1065J
1340.38	1.6	1389045	WORD	n/a	wordpools/wordpool_EN.txt	SPEAR	12	13	[0, 0, 0]	n/a	FR1	3	R1065J
1341.997	0.001	1390662	DISTRACT_START	n/a	n/a	n/a	-999	13	[0, 0, 0]	n/a	FR1	3	R1065J
1341.998	0.016	1390663	START	n/a	n/a	n/a	-999	13	[-999, -999, -999]	n/a	FR1	3	R1065J
1342.014	2.418	1390679	PROB	2.386	n/a	n/a	-999	13	[1, 4, 9]	14.0	FR1	3	R1065J
1344.432	1.732	1393097	PROB	1.704	n/a	n/a	-999	13	[5, 3, 2]	10.0	FR1	3	R1065J
1346.164	1.984	1394829	PROB	1.956	n/a	n/a	-999	13	[7, 2, 1]	10.0	FR1	3	R1065J
1348.148	2.117	1396813	PROB	2.092	n/a	n/a	-999	13	[9, 2, 2]	13.0	FR1	3	R1065J
1350.265	1.967	1398930	PROB	1.934	n/a	n/a	-999	13	[1, 5, 9]	14.0	FR1	3	R1065J
1352.232	3.151	1400897	PROB	3.128	n/a	n/a	-999	13	[7, 2, 3]	12.0	FR1	3	R1065J
1355.383	3.084	1404048	PROB	3.049	n/a	n/a	-999	13	[3, 7, 6]	17.0	FR1	3	R1065J
1358.467	2.533	1407132	PROB	2.508	n/a	n/a	-999	13	[3, 6, 5]	14.0	FR1	3	R1065J
1361.0	2.488	1409665	PROB	2.488	n/a	n/a	-999	13	[2, 3, 5]	10.0	FR1	3	R1065J
1363.488	0.013	1412153	STOP	n/a	n/a	n/a	-999	13	[-999, -999, -999]	n/a	FR1	3	R1065J
1363.501	1.15	1412166	DISTRACT_END	n/a	n/a	n/a	-999	13	[0, 0, 0]	n/a	FR1	3	R1065J
1364.651	1.995	1413316	REC_START	n/a	n/a	n/a	-999	13	[0, 0, 0]	n/a	FR1	3	R1065J
1366.646	1.816	1415311	REC_WORD	1.995	n/a	CORN	-999	13	[0, 0, 0]	n/a	FR1	3	R1065J
1368.462	2.196	1417127	REC_WORD	3.811	n/a	DEER	-999	13	[0, 0, 0]	n/a	FR1	3	R1065J
1370.658	11.961	1419323	REC_WORD	6.007	n/a	PIG	-999	13	[0, 0, 0]	n/a	FR1	3	R1065J
1382.619	12.041	1431284	REC_WORD	17.968	n/a	SPEAR	-999	13	[0, 0, 0]	n/a	FR1	3	R1065J
1394.66	11.613	1443326	REC_END	n/a	n/a	n/a	-999	13	[0, 0, 0]	n/a	FR1	3	R1065J
1406.273	0.0	1454939	TRIAL	n/a	n/a	n/a	-999	14	[0, 0, 0]	n/a	FR1	3	R1065J
1406.273	10.0	1454939	COUNTDOWN_START	n/a	n/a	n/a	-999	14	[0, 0, 0]	n/a	FR1	3	R1065J
1416.701	0.007	1465367	COUNTDOWN_END	n/a	n/a	n/a	-999	14	[0, 0, 0]	n/a	FR1	3	R1065J
1416.708	1.6	1465374	ORIENT	n/a	n/a	n/a	-999	14	[0, 0, 0]	n/a	FR1	3	R1065J
1419.108	1.6	1467774	WORD	n/a	wordpools/wordpool_EN.txt	STORM	1	14	[0, 0, 0]	n/a	FR1	3	R1065J
1421.543	1.6	1470209	WORD	n/a	wordpools/wordpool_EN.txt	FOAM	2	14	[0, 0, 0]	n/a	FR1	3	R1065J
1424.009	1.6	1472675	WORD	n/a	wordpools/wordpool_EN.txt	STRAW	3	14	[0, 0, 0]	n/a	FR1	3	R1065J
1426.527	1.6	1475193	WORD	n/a	wordpools/wordpool_EN.txt	TRASH	4	14	[0, 0, 0]	n/a	FR1	3	R1065J
1429.076	1.6	1477742	WORD	n/a	wordpools/wordpool_EN.txt	CLIFF	5	14	[0, 0, 0]	n/a	FR1	3	R1065J
1431.477	1.6	1480143	WORD	n/a	wordpools/wordpool_EN.txt	STAIR	6	14	[0, 0, 0]	n/a	FR1	3	R1065J
1433.994	1.6	1482660	WORD	n/a	wordpools/wordpool_EN.txt	GLASS	7	14	[0, 0, 0]	n/a	FR1	3	R1065J
1436.428	1.6	1485094	WORD	n/a	wordpools/wordpool_EN.txt	WHALE	8	14	[0, 0, 0]	n/a	FR1	3	R1065J
1438.994	1.6	1487660	WORD	n/a	wordpools/wordpool_EN.txt	BRICK	9	14	[0, 0, 0]	n/a	FR1	3	R1065J
1441.462	1.6	1490128	WORD	n/a	wordpools/wordpool_EN.txt	SMOKE	10	14	[0, 0, 0]	n/a	FR1	3	R1065J
1443.878	1.6	1492544	WORD	n/a	wordpools/wordpool_EN.txt	ROPE	11	14	[0, 0, 0]	n/a	FR1	3	R1065J
1446.245	1.6	1494911	WORD	n/a	wordpools/wordpool_EN.txt	ROCK	12	14	[0, 0, 0]	n/a	FR1	3	R1065J
1447.862	0.001	1496528	DISTRACT_START	n/a	n/a	n/a	-999	14	[0, 0, 0]	n/a	FR1	3	R1065J
1447.863	0.016	1496529	START	n/a	n/a	n/a	-999	14	[-999, -999, -999]	n/a	FR1	3	R1065J
1447.879	2.183	1496545	PROB	2.157	n/a	n/a	-999	14	[8, 2, 1]	11.0	FR1	3	R1065J
1450.062	2.435	1498728	PROB	2.408	n/a	n/a	-999	14	[3, 9, 3]	15.0	FR1	3	R1065J
1452.497	1.934	1501163	PROB	1.901	n/a	n/a	-999	14	[6, 5, 1]	12.0	FR1	3	R1065J
1454.431	1.849	1503097	PROB	1.814	n/a	n/a	-999	14	[8, 1, 7]	16.0	FR1	3	R1065J
1456.28	3.202	1504946	PROB	3.174	n/a	n/a	-999	14	[8, 5, 6]	19.0	FR1	3	R1065J
1459.482	2.05	1508148	PROB	2.028	n/a	n/a	-999	14	[8, 8, 3]	18.0	FR1	3	R1065J
1461.532	1.983	1510198	PROB	1.953	n/a	n/a	-999	14	[5, 5, 7]	17.0	FR1	3	R1065J
1463.515	2.316	1512181	PROB	2.282	n/a	n/a	-999	14	[2, 9, 7]	18.0	FR1	3	R1065J
1465.831	2.31	1514497	PROB	2.31	n/a	n/a	-999	14	[4, 5, 8]	17.0	FR1	3	R1065J
1468.141	0.008	1516807	STOP	n/a	n/a	n/a	-999	14	[-999, -999, -999]	n/a	FR1	3	R1065J
1468.149	1.167	1516815	DISTRACT_END	n/a	n/a	n/a	-999	14	[0, 0, 0]	n/a	FR1	3	R1065J
1469.316	1.82	1517982	REC_START	n/a	n/a	n/a	-999	14	[0, 0, 0]	n/a	FR1	3	R1065J
1471.136	2.269	1519802	REC_WORD	1.82	n/a	CLIFF	-999	14	[0, 0, 0]	n/a	FR1	3	R1065J
1473.405	3.515	1522071	REC_WORD	4.089	n/a	STONE	-999	14	[0, 0, 0]	n/a	FR1	3	R1065J
1476.92	3.645	1525586	REC_WORD	7.604	n/a	FOAM	-999	14	[0, 0, 0]	n/a	FR1	3	R1065J
1480.565	11.531	1529231	REC_WORD	11.249	n/a	STORM	-999	14	[0, 0, 0]	n/a	FR1	3	R1065J
1492.096	7.227	1540762	REC_WORD	22.78	n/a	TRASH	-999	14	[0, 0, 0]	n/a	FR1	3	R1065J
1499.323	2.181	1547989	REC_END	n/a	n/a	n/a	-999	14	[0, 0, 0]	n/a	FR1	3	R1065J
1501.504	0.0	1550170	TRIAL	n/a	n/a	n/a	-999	15	[0, 0, 0]	n/a	FR1	3	R1065J
1501.504	10.0	1550170	COUNTDOWN_START	n/a	n/a	n/a	-999	15	[0, 0, 0]	n/a	FR1	3	R1065J
1511.932	0.006	1560599	COUNTDOWN_END	n/a	n/a	n/a	-999	15	[0, 0, 0]	n/a	FR1	3	R1065J
1511.938	1.6	1560605	ORIENT	n/a	n/a	n/a	-999	15	[0, 0, 0]	n/a	FR1	3	R1065J
1514.321	1.6	1562988	WORD	n/a	wordpools/wordpool_EN.txt	BEAN	1	15	[0, 0, 0]	n/a	FR1	3	R1065J
1516.806	1.6	1565473	WORD	n/a	wordpools/wordpool_EN.txt	BIRD	2	15	[0, 0, 0]	n/a	FR1	3	R1065J
1519.339	1.6	1568006	WORD	n/a	wordpools/wordpool_EN.txt	FOOT	3	15	[0, 0, 0]	n/a	FR1	3	R1065J
1521.756	1.6	1570423	WORD	n/a	wordpools/wordpool_EN.txt	BEAK	4	15	[0, 0, 0]	n/a	FR1	3	R1065J
1524.173	1.6	1572840	WORD	n/a	wordpools/wordpool_EN.txt	PLANT	5	15	[0, 0, 0]	n/a	FR1	3	R1065J
1526.723	1.6	1575390	WORD	n/a	wordpools/wordpool_EN.txt	BLOOM	6	15	[0, 0, 0]	n/a	FR1	3	R1065J
1529.291	1.6	1577958	WORD	n/a	wordpools/wordpool_EN.txt	ANT	7	15	[0, 0, 0]	n/a	FR1	3	R1065J
1531.724	1.6	1580391	WORD	n/a	wordpools/wordpool_EN.txt	BEE	8	15	[0, 0, 0]	n/a	FR1	3	R1065J
1534.191	1.6	1582858	WORD	n/a	wordpools/wordpool_EN.txt	FOOD	9	15	[0, 0, 0]	n/a	FR1	3	R1065J
1536.808	1.6	1585475	WORD	n/a	wordpools/wordpool_EN.txt	BREAD	10	15	[0, 0, 0]	n/a	FR1	3	R1065J
1539.375	1.6	1588042	WORD	n/a	wordpools/wordpool_EN.txt	RICE	11	15	[0, 0, 0]	n/a	FR1	3	R1065J
1541.759	1.6	1590426	WORD	n/a	wordpools/wordpool_EN.txt	TREE	12	15	[0, 0, 0]	n/a	FR1	3	R1065J
1543.376	0.001	1592043	DISTRACT_START	n/a	n/a	n/a	-999	15	[0, 0, 0]	n/a	FR1	3	R1065J
1543.377	0.016	1592044	START	n/a	n/a	n/a	-999	15	[-999, -999, -999]	n/a	FR1	3	R1065J
1543.393	2.567	1592060	PROB	2.537	n/a	n/a	-999	15	[7, 2, 1]	10.0	FR1	3	R1065J
1545.96	1.75	1594627	PROB	1.722	n/a	n/a	-999	15	[1, 1, 9]	11.0	FR1	3	R1065J
1547.71	1.768	1596377	PROB	1.741	n/a	n/a	-999	15	[1, 4, 1]	6.0	FR1	3	R1065J
1549.478	2.249	1598145	PROB	2.228	n/a	n/a	-999	15	[9, 4, 2]	15.0	FR1	3	R1065J
1551.727	3.334	1600394	PROB	3.299	n/a	n/a	-999	15	[4, 6, 6]	16.0	FR1	3	R1065J
1555.061	3.901	1603728	PROB	3.877	n/a	n/a	-999	15	[8, 5, 7]	20.0	FR1	3	R1065J
1558.962	1.716	1607629	PROB	1.68	n/a	n/a	-999	15	[1, 1, 4]	6.0	FR1	3	R1065J
1560.678	2.101	1609345	PROB	2.068	n/a	n/a	-999	15	[8, 7, 2]	17.0	FR1	3	R1065J
1562.779	2.079	1611446	PROB	2.079	n/a	n/a	-999	15	[4, 5, 8]	17.0	FR1	3	R1065J
1564.858	0.004	1613525	STOP	n/a	n/a	n/a	-999	15	[-999, -999, -999]	n/a	FR1	3	R1065J
1564.862	1.084	1613529	DISTRACT_END	n/a	n/a	n/a	-999	15	[0, 0, 0]	n/a	FR1	3	R1065J
1565.946	2.207	1614613	REC_START	n/a	n/a	n/a	-999	15	[0, 0, 0]	n/a	FR1	3	R1065J
1568.153	1.839	1616820	REC_WORD	2.207	n/a	ANT	-999	15	[0, 0, 0]	n/a	FR1	3	R1065J
1569.992	2.414	1618659	REC_WORD	4.046	n/a	BEE	-999	15	[0, 0, 0]	n/a	FR1	3	R1065J
1572.406	2.689	1621073	REC_WORD	6.46	n/a	FOOD	-999	15	[0, 0, 0]	n/a	FR1	3	R1065J
1575.095	1.469	1623762	REC_WORD	9.149	n/a	RICE	-999	15	[0, 0, 0]	n/a	FR1	3	R1065J
1576.564	9.517	1625231	REC_WORD	10.618	n/a	BREAD	-999	15	[0, 0, 0]	n/a	FR1	3	R1065J
1586.081	9.879	1634748	REC_WORD	20.135	n/a	BOWL	-999	15	[0, 0, 0]	n/a	FR1	3	R1065J
1595.96	2.575	1644627	REC_END	n/a	n/a	n/a	-999	15	[0, 0, 0]	n/a	FR1	3	R1065J
1598.535	10.0	1647202	COUNTDOWN_START	n/a	n/a	n/a	-999	16	[0, 0, 0]	n/a	FR1	3	R1065J
1598.535	10.428	1647202	TRIAL	n/a	n/a	n/a	-999	16	[0, 0, 0]	n/a	FR1	3	R1065J
1608.963	0.006	1657630	COUNTDOWN_END	n/a	n/a	n/a	-999	16	[0, 0, 0]	n/a	FR1	3	R1065J
1608.969	1.6	1657636	ORIENT	n/a	n/a	n/a	-999	16	[0, 0, 0]	n/a	FR1	3	R1065J
1611.386	1.6	1660053	WORD	n/a	wordpools/wordpool_EN.txt	LAND	1	16	[0, 0, 0]	n/a	FR1	3	R1065J
1613.836	1.6	1662503	WORD	n/a	wordpools/wordpool_EN.txt	LAKE	2	16	[0, 0, 0]	n/a	FR1	3	R1065J
1616.336	1.6	1665003	WORD	n/a	wordpools/wordpool_EN.txt	FARM	3	16	[0, 0, 0]	n/a	FR1	3	R1065J
1618.837	1.6	1667504	WORD	n/a	wordpools/wordpool_EN.txt	TOY	4	16	[0, 0, 0]	n/a	FR1	3	R1065J
1621.27	1.6	1669938	WORD	n/a	wordpools/wordpool_EN.txt	ZOO	5	16	[0, 0, 0]	n/a	FR1	3	R1065J
1623.787	1.6	1672455	WORD	n/a	wordpools/wordpool_EN.txt	TEA	6	16	[0, 0, 0]	n/a	FR1	3	R1065J
1626.287	1.6	1674955	WORD	n/a	wordpools/wordpool_EN.txt	HEART	7	16	[0, 0, 0]	n/a	FR1	3	R1065J
1628.705	1.6	1677373	WORD	n/a	wordpools/wordpool_EN.txt	CAT	8	16	[0, 0, 0]	n/a	FR1	3	R1065J
1631.088	1.6	1679756	WORD	n/a	wordpools/wordpool_EN.txt	BRIDGE	9	16	[0, 0, 0]	n/a	FR1	3	R1065J
1633.54	1.6	1682208	WORD	n/a	wordpools/wordpool_EN.txt	SHRIMP	10	16	[0, 0, 0]	n/a	FR1	3	R1065J
1636.089	1.6	1684757	WORD	n/a	wordpools/wordpool_EN.txt	FORT	11	16	[0, 0, 0]	n/a	FR1	3	R1065J
1638.523	1.6	1687191	WORD	n/a	wordpools/wordpool_EN.txt	GOLD	12	16	[0, 0, 0]	n/a	FR1	3	R1065J
1640.139	0.001	1688807	DISTRACT_START	n/a	n/a	n/a	-999	16	[0, 0, 0]	n/a	FR1	3	R1065J
1640.14	0.016	1688808	START	n/a	n/a	n/a	-999	16	[-999, -999, -999]	n/a	FR1	3	R1065J
1640.156	1.984	1688824	PROB	1.956	n/a	n/a	-999	16	[2, 1, 1]	4.0	FR1	3	R1065J
1642.14	1.983	1690808	PROB	1.948	n/a	n/a	-999	16	[9, 9, 2]	20.0	FR1	3	R1065J
1644.123	1.801	1692791	PROB	1.765	n/a	n/a	-999	16	[3, 3, 2]	8.0	FR1	3	R1065J
1645.924	2.117	1694592	PROB	2.084	n/a	n/a	-999	16	[4, 7, 9]	20.0	FR1	3	R1065J
1648.041	2.568	1696709	PROB	2.544	n/a	n/a	-999	16	[2, 7, 8]	17.0	FR1	3	R1065J
1650.609	2.032	1699277	PROB	1.999	n/a	n/a	-999	16	[5, 6, 7]	18.0	FR1	3	R1065J
1652.641	3.401	1701309	PROB	3.366	n/a	n/a	-999	16	[8, 6, 9]	23.0	FR1	3	R1065J
1656.042	2.117	1704710	PROB	2.086	n/a	n/a	-999	16	[8, 1, 3]	12.0	FR1	3	R1065J
1658.159	1.933	1706827	PROB	1.912	n/a	n/a	-999	16	[1, 2, 3]	6.0	FR1	3	R1065J
1660.092	1.883	1708760	PROB	1.883	n/a	n/a	-999	16	[3, 2, 7]	12.0	FR1	3	R1065J
1661.975	0.018	1710643	STOP	n/a	n/a	n/a	-999	16	[-999, -999, -999]	n/a	FR1	3	R1065J
1661.993	1.117	1710661	DISTRACT_END	n/a	n/a	n/a	-999	16	[0, 0, 0]	n/a	FR1	3	R1065J
1663.11	1.588	1711778	REC_START	n/a	n/a	n/a	-999	16	[0, 0, 0]	n/a	FR1	3	R1065J
1664.698	1.911	1713366	REC_WORD	1.588	n/a	FORT	-999	16	[0, 0, 0]	n/a	FR1	3	R1065J
1666.609	26.511	1715277	REC_WORD	3.499	n/a	LAND	-999	16	[0, 0, 0]	n/a	FR1	3	R1065J
1693.12	3.211	1741788	REC_END	n/a	n/a	n/a	-999	16	[0, 0, 0]	n/a	FR1	3	R1065J
1696.331	0.0	1744999	TRIAL	n/a	n/a	n/a	-999	17	[0, 0, 0]	n/a	FR1	3	R1065J
1696.331	10.0	1744999	COUNTDOWN_START	n/a	n/a	n/a	-999	17	[0, 0, 0]	n/a	FR1	3	R1065J
1706.759	0.007	1755427	COUNTDOWN_END	n/a	n/a	n/a	-999	17	[0, 0, 0]	n/a	FR1	3	R1065J
1706.766	1.6	1755434	ORIENT	n/a	n/a	n/a	-999	17	[0, 0, 0]	n/a	FR1	3	R1065J
1709.199	1.6	1757867	WORD	n/a	wordpools/wordpool_EN.txt	COIN	1	17	[0, 0, 0]	n/a	FR1	3	R1065J
1711.666	1.6	1760334	WORD	n/a	wordpools/wordpool_EN.txt	WALL	2	17	[0, 0, 0]	n/a	FR1	3	R1065J
1714.15	1.6	1762818	WORD	n/a	wordpools/wordpool_EN.txt	GLOVE	3	17	[0, 0, 0]	n/a	FR1	3	R1065J
1716.551	1.6	1765219	WORD	n/a	wordpools/wordpool_EN.txt	SHIELD	4	17	[0, 0, 0]	n/a	FR1	3	R1065J
1719.084	1.6	1767752	WORD	n/a	wordpools/wordpool_EN.txt	SPARK	5	17	[0, 0, 0]	n/a	FR1	3	R1065J
1721.469	1.6	1770137	WORD	n/a	wordpools/wordpool_EN.txt	RAIN	6	17	[0, 0, 0]	n/a	FR1	3	R1065J
1724.051	1.6	1772719	WORD	n/a	wordpools/wordpool_EN.txt	SPONGE	7	17	[0, 0, 0]	n/a	FR1	3	R1065J
1726.603	1.6	1775271	WORD	n/a	wordpools/wordpool_EN.txt	BOX	8	17	[0, 0, 0]	n/a	FR1	3	R1065J
1729.002	1.6	1777670	WORD	n/a	wordpools/wordpool_EN.txt	HOOK	9	17	[0, 0, 0]	n/a	FR1	3	R1065J
1731.42	1.6	1780088	WORD	n/a	wordpools/wordpool_EN.txt	BALL	10	17	[0, 0, 0]	n/a	FR1	3	R1065J
1733.819	1.6	1782488	WORD	n/a	wordpools/wordpool_EN.txt	ELF	11	17	[0, 0, 0]	n/a	FR1	3	R1065J
1736.203	1.6	1784872	WORD	n/a	wordpools/wordpool_EN.txt	HOSE	12	17	[0, 0, 0]	n/a	FR1	3	R1065J
1737.82	0.001	1786489	DISTRACT_START	n/a	n/a	n/a	-999	17	[0, 0, 0]	n/a	FR1	3	R1065J
1737.821	0.016	1786490	START	n/a	n/a	n/a	-999	17	[-999, -999, -999]	n/a	FR1	3	R1065J
1737.837	4.134	1786506	PROB	4.104	n/a	n/a	-999	17	[4, 7, 8]	19.0	FR1	3	R1065J
1741.971	2.117	1790640	PROB	2.09	n/a	n/a	-999	17	[4, 1, 8]	13.0	FR1	3	R1065J
1744.088	3.0	1792757	PROB	2.965	n/a	n/a	-999	17	[3, 6, 6]	15.0	FR1	3	R1065J
1747.088	3.867	1795757	PROB	3.837	n/a	n/a	-999	17	[7, 5, 8]	20.0	FR1	3	R1065J
1750.955	1.767	1799624	PROB	1.746	n/a	n/a	-999	17	[1, 5, 1]	7.0	FR1	3	R1065J
1752.722	2.151	1801391	PROB	2.13	n/a	n/a	-999	17	[7, 5, 9]	21.0	FR1	3	R1065J
1754.873	1.8	1803542	PROB	1.764	n/a	n/a	-999	17	[9, 9, 4]	22.0	FR1	3	R1065J
1756.673	2.476	1805342	PROB	2.476	n/a	n/a	-999	17	[6, 3, 5]	14.0	FR1	3	R1065J
1759.149	0.008	1807818	STOP	n/a	n/a	n/a	-999	17	[-999, -999, -999]	n/a	FR1	3	R1065J
1759.157	1.1	1807826	DISTRACT_END	n/a	n/a	n/a	-999	17	[0, 0, 0]	n/a	FR1	3	R1065J
1760.257	5.514	1808926	REC_START	n/a	n/a	n/a	-999	17	[0, 0, 0]	n/a	FR1	3	R1065J
1765.771	4.501	1814440	REC_WORD	5.514	n/a	GLOVE	-999	17	[0, 0, 0]	n/a	FR1	3	R1065J
1770.272	2.284	1818941	REC_WORD	10.015	n/a	WALL	-999	17	[0, 0, 0]	n/a	FR1	3	R1065J
1772.556	4.282	1821225	REC_WORD	12.299	n/a	SPARK	-999	17	[0, 0, 0]	n/a	FR1	3	R1065J
1776.838	11.127	1825507	REC_WORD	16.581	n/a	SPONGE	-999	17	[0, 0, 0]	n/a	FR1	3	R1065J
1787.965	2.303	1836634	REC_WORD	27.708	n/a	SHIELD	-999	17	[0, 0, 0]	n/a	FR1	3	R1065J
1790.268	2.46	1838937	REC_END	n/a	n/a	n/a	-999	17	[0, 0, 0]	n/a	FR1	3	R1065J
1792.728	0.0	1841397	TRIAL	n/a	n/a	n/a	-999	18	[0, 0, 0]	n/a	FR1	3	R1065J
1792.728	10.0	1841397	COUNTDOWN_START	n/a	n/a	n/a	-999	18	[0, 0, 0]	n/a	FR1	3	R1065J
1803.156	0.007	1851825	COUNTDOWN_END	n/a	n/a	n/a	-999	18	[0, 0, 0]	n/a	FR1	3	R1065J
1803.163	1.6	1851832	ORIENT	n/a	n/a	n/a	-999	18	[0, 0, 0]	n/a	FR1	3	R1065J
1805.663	1.6	1854332	WORD	n/a	wordpools/wordpool_EN.txt	OAK	1	18	[0, 0, 0]	n/a	FR1	3	R1065J
1808.063	1.6	1856732	WORD	n/a	wordpools/wordpool_EN.txt	CUP	2	18	[0, 0, 0]	n/a	FR1	3	R1065J
1810.581	1.6	1859250	WORD	n/a	wordpools/wordpool_EN.txt	MUG	3	18	[0, 0, 0]	n/a	FR1	3	R1065J
1813.047	1.6	1861716	WORD	n/a	wordpools/wordpool_EN.txt	SHELL	4	18	[0, 0, 0]	n/a	FR1	3	R1065J
1815.432	1.6	1864101	WORD	n/a	wordpools/wordpool_EN.txt	PASTE	5	18	[0, 0, 0]	n/a	FR1	3	R1065J
1818.032	1.6	1866701	WORD	n/a	wordpools/wordpool_EN.txt	EGG	6	18	[0, 0, 0]	n/a	FR1	3	R1065J
1820.483	1.6	1869152	WORD	n/a	wordpools/wordpool_EN.txt	WAND	7	18	[0, 0, 0]	n/a	FR1	3	R1065J
1822.915	1.6	1871584	WORD	n/a	wordpools/wordpool_EN.txt	SPOON	8	18	[0, 0, 0]	n/a	FR1	3	R1065J
1825.433	1.6	1874102	WORD	n/a	wordpools/wordpool_EN.txt	HEN	9	18	[0, 0, 0]	n/a	FR1	3	R1065J
1828.05	1.6	1876719	WORD	n/a	wordpools/wordpool_EN.txt	LAMB	10	18	[0, 0, 0]	n/a	FR1	3	R1065J
1830.567	1.6	1879236	WORD	n/a	wordpools/wordpool_EN.txt	WOOD	11	18	[0, 0, 0]	n/a	FR1	3	R1065J
1832.967	1.6	1881636	WORD	n/a	wordpools/wordpool_EN.txt	PEACH	12	18	[0, 0, 0]	n/a	FR1	3	R1065J
1834.585	0.001	1883254	DISTRACT_START	n/a	n/a	n/a	-999	18	[0, 0, 0]	n/a	FR1	3	R1065J
1834.586	0.015	1883255	START	n/a	n/a	n/a	-999	18	[-999, -999, -999]	n/a	FR1	3	R1065J
1834.601	3.968	1883270	PROB	3.946	n/a	n/a	-999	18	[7, 7, 9]	23.0	FR1	3	R1065J
1838.569	2.766	1887238	PROB	2.746	n/a	n/a	-999	18	[3, 4, 2]	9.0	FR1	3	R1065J
1841.335	1.983	1890004	PROB	1.963	n/a	n/a	-999	18	[4, 1, 8]	13.0	FR1	3	R1065J
1843.318	1.917	1891987	PROB	1.884	n/a	n/a	-999	18	[2, 3, 3]	8.0	FR1	3	R1065J
1845.235	1.834	1893904	PROB	1.807	n/a	n/a	-999	18	[6, 1, 1]	8.0	FR1	3	R1065J
1847.069	2.017	1895738	PROB	1.982	n/a	n/a	-999	18	[2, 4, 9]	15.0	FR1	3	R1065J
1849.086	2.617	1897756	PROB	2.588	n/a	n/a	-999	18	[1, 3, 2]	6.0	FR1	3	R1065J
1851.703	1.901	1900373	PROB	1.876	n/a	n/a	-999	18	[3, 6, 4]	13.0	FR1	3	R1065J
1853.604	1.983	1902274	PROB	1.983	n/a	n/a	-999	18	[3, 3, 7]	13.0	FR1	3	R1065J
1855.587	0.017	1904257	STOP	n/a	n/a	n/a	-999	18	[-999, -999, -999]	n/a	FR1	3	R1065J
1855.604	1.117	1904274	DISTRACT_END	n/a	n/a	n/a	-999	18	[0, 0, 0]	n/a	FR1	3	R1065J
1856.721	1.995	1905391	REC_START	n/a	n/a	n/a	-999	18	[0, 0, 0]	n/a	FR1	3	R1065J
1858.716	9.966	1907386	REC_WORD	1.995	n/a	PEACH	-999	18	[0, 0, 0]	n/a	FR1	3	R1065J
1868.682	18.051	1917352	REC_WORD	11.961	n/a	WOOD	-999	18	[0, 0, 0]	n/a	FR1	3	R1065J
1886.733	3.342	1935403	REC_END	n/a	n/a	n/a	-999	18	[0, 0, 0]	n/a	FR1	3	R1065J
1890.075	0.0	1938745	TRIAL	n/a	n/a	n/a	-999	19	[0, 0, 0]	n/a	FR1	3	R1065J
1890.075	10.0	1938745	COUNTDOWN_START	n/a	n/a	n/a	-999	19	[0, 0, 0]	n/a	FR1	3	R1065J
1900.503	0.008	1949173	COUNTDOWN_END	n/a	n/a	n/a	-999	19	[0, 0, 0]	n/a	FR1	3	R1065J
1900.511	1.6	1949181	ORIENT	n/a	n/a	n/a	-999	19	[0, 0, 0]	n/a	FR1	3	R1065J
1903.043	1.6	1951713	WORD	n/a	wordpools/wordpool_EN.txt	FOX	1	19	[0, 0, 0]	n/a	FR1	3	R1065J
1905.445	1.6	1954115	WORD	n/a	wordpools/wordpool_EN.txt	BAG	2	19	[0, 0, 0]	n/a	FR1	3	R1065J
1907.861	1.6	1956531	WORD	n/a	wordpools/wordpool_EN.txt	COW	3	19	[0, 0, 0]	n/a	FR1	3	R1065J
1910.378	1.6	1959048	WORD	n/a	wordpools/wordpool_EN.txt	CRANE	4	19	[0, 0, 0]	n/a	FR1	3	R1065J
1912.795	1.6	1961465	WORD	n/a	wordpools/wordpool_EN.txt	DOCK	5	19	[0, 0, 0]	n/a	FR1	3	R1065J
1915.195	1.6	1963865	WORD	n/a	wordpools/wordpool_EN.txt	AXE	6	19	[0, 0, 0]	n/a	FR1	3	R1065J
1917.597	1.6	1966267	WORD	n/a	wordpools/wordpool_EN.txt	EAR	7	19	[0, 0, 0]	n/a	FR1	3	R1065J
1920.029	1.6	1968699	WORD	n/a	wordpools/wordpool_EN.txt	GRASS	8	19	[0, 0, 0]	n/a	FR1	3	R1065J
1922.464	1.6	1971134	WORD	n/a	wordpools/wordpool_EN.txt	CROW	9	19	[0, 0, 0]	n/a	FR1	3	R1065J
1924.897	1.6	1973567	WORD	n/a	wordpools/wordpool_EN.txt	TOAD	10	19	[0, 0, 0]	n/a	FR1	3	R1065J
1927.347	1.6	1976017	WORD	n/a	wordpools/wordpool_EN.txt	WORLD	11	19	[0, 0, 0]	n/a	FR1	3	R1065J
1929.764	1.6	1978434	WORD	n/a	wordpools/wordpool_EN.txt	SHEEP	12	19	[0, 0, 0]	n/a	FR1	3	R1065J
1931.381	0.0	1980051	DISTRACT_START	n/a	n/a	n/a	-999	19	[0, 0, 0]	n/a	FR1	3	R1065J
1931.381	0.017	1980051	START	n/a	n/a	n/a	-999	19	[-999, -999, -999]	n/a	FR1	3	R1065J
1931.398	2.883	1980068	PROB	2.85	n/a	n/a	-999	19	[6, 8, 5]	18.0	FR1	3	R1065J
1934.281	2.651	1982951	PROB	2.631	n/a	n/a	-999	19	[9, 8, 6]	23.0	FR1	3	R1065J
1936.932	2.333	1985602	PROB	2.3	n/a	n/a	-999	19	[2, 3, 2]	7.0	FR1	3	R1065J
1939.265	1.934	1987935	PROB	1.91	n/a	n/a	-999	19	[8, 2, 5]	15.0	FR1	3	R1065J
1941.199	1.883	1989869	PROB	1.856	n/a	n/a	-999	19	[8, 2, 4]	14.0	FR1	3	R1065J
1943.082	1.851	1991752	PROB	1.814	n/a	n/a	-999	19	[2, 3, 9]	14.0	FR1	3	R1065J
1944.933	2.117	1993603	PROB	2.083	n/a	n/a	-999	19	[5, 2, 1]	8.0	FR1	3	R1065J
1947.05	1.733	1995720	PROB	1.71	n/a	n/a	-999	19	[1, 3, 7]	11.0	FR1	3	R1065J
1948.783	3.721	1997453	PROB	3.721	n/a	n/a	-999	19	[4, 3, 2]	9.0	FR1	3	R1065J
1952.504	0.014	2001174	STOP	n/a	n/a	n/a	-999	19	[-999, -999, -999]	n/a	FR1	3	R1065J
1952.518	1.183	2001188	DISTRACT_END	n/a	n/a	n/a	-999	19	[0, 0, 0]	n/a	FR1	3	R1065J
1953.701	2.136	2002371	REC_START	n/a	n/a	n/a	-999	19	[0, 0, 0]	n/a	FR1	3	R1065J
1955.837	1.993	2004507	REC_WORD	2.136	n/a	FOX	-999	19	[0, 0, 0]	n/a	FR1	3	R1065J
1957.83	1.728	2006500	REC_WORD	4.129	n/a	COW	-999	19	[0, 0, 0]	n/a	FR1	3	R1065J
1959.558	3.352	2008228	REC_WORD	5.857	n/a	SHEEP	-999	19	[0, 0, 0]	n/a	FR1	3	R1065J
1962.91	2.864	2011581	REC_WORD	9.209	n/a	TOAD	-999	19	[0, 0, 0]	n/a	FR1	3	R1065J
1965.774	3.001	2014445	REC_WORD	12.073	n/a	CRANE	-999	19	[0, 0, 0]	n/a	FR1	3	R1065J
1968.775	14.944	2017446	REC_WORD	15.074	n/a	CROW	-999	19	[0, 0, 0]	n/a	FR1	3	R1065J
1983.719	3.937	2032390	REC_END	n/a	n/a	n/a	-999	19	[0, 0, 0]	n/a	FR1	3	R1065J
1987.656	0.0	2036327	TRIAL	n/a	n/a	n/a	-999	20	[0, 0, 0]	n/a	FR1	3	R1065J
1987.656	10.0	2036327	COUNTDOWN_START	n/a	n/a	n/a	-999	20	[0, 0, 0]	n/a	FR1	3	R1065J
1998.084	0.006	2046755	COUNTDOWN_END	n/a	n/a	n/a	-999	20	[0, 0, 0]	n/a	FR1	3	R1065J
1998.09	1.6	2046761	ORIENT	n/a	n/a	n/a	-999	20	[0, 0, 0]	n/a	FR1	3	R1065J
2000.575	1.6	2049246	WORD	n/a	wordpools/wordpool_EN.txt	SEA	1	20	[0, 0, 0]	n/a	FR1	3	R1065J
2003.074	1.6	2051745	WORD	n/a	wordpools/wordpool_EN.txt	STAR	2	20	[0, 0, 0]	n/a	FR1	3	R1065J
2005.476	1.6	2054147	WORD	n/a	wordpools/wordpool_EN.txt	SHIP	3	20	[0, 0, 0]	n/a	FR1	3	R1065J
2007.875	1.6	2056546	WORD	n/a	wordpools/wordpool_EN.txt	STEAM	4	20	[0, 0, 0]	n/a	FR1	3	R1065J
2010.259	1.6	2058930	WORD	n/a	wordpools/wordpool_EN.txt	BOMB	5	20	[0, 0, 0]	n/a	FR1	3	R1065J
2012.676	1.6	2061347	WORD	n/a	wordpools/wordpool_EN.txt	JEEP	6	20	[0, 0, 0]	n/a	FR1	3	R1065J
2015.109	1.6	2063780	WORD	n/a	wordpools/wordpool_EN.txt	PLANE	7	20	[0, 0, 0]	n/a	FR1	3	R1065J
2017.66	1.6	2066331	WORD	n/a	wordpools/wordpool_EN.txt	MOON	8	20	[0, 0, 0]	n/a	FR1	3	R1065J
2020.227	1.6	2068898	WORD	n/a	wordpools/wordpool_EN.txt	FILM	9	20	[0, 0, 0]	n/a	FR1	3	R1065J
2022.727	1.6	2071398	WORD	n/a	wordpools/wordpool_EN.txt	CLOUD	10	20	[0, 0, 0]	n/a	FR1	3	R1065J
2025.261	1.6	2073932	WORD	n/a	wordpools/wordpool_EN.txt	TANK	11	20	[0, 0, 0]	n/a	FR1	3	R1065J
2027.711	1.6	2076382	WORD	n/a	wordpools/wordpool_EN.txt	FLUTE	12	20	[0, 0, 0]	n/a	FR1	3	R1065J
2029.328	0.001	2077999	DISTRACT_START	n/a	n/a	n/a	-999	20	[0, 0, 0]	n/a	FR1	3	R1065J
2029.329	0.016	2078000	START	n/a	n/a	n/a	-999	20	[-999, -999, -999]	n/a	FR1	3	R1065J
2029.345	2.483	2078016	PROB	2.46	n/a	n/a	-999	20	[8, 2, 5]	15.0	FR1	3	R1065J
2031.828	1.917	2080499	PROB	1.889	n/a	n/a	-999	20	[2, 5, 9]	16.0	FR1	3	R1065J
2033.745	1.752	2082416	PROB	1.726	n/a	n/a	-999	20	[1, 2, 2]	5.0	FR1	3	R1065J
2035.497	1.782	2084168	PROB	1.757	n/a	n/a	-999	20	[4, 7, 1]	12.0	FR1	3	R1065J
2037.279	2.867	2085950	PROB	2.838	n/a	n/a	-999	20	[5, 9, 2]	16.0	FR1	3	R1065J
2040.146	1.984	2088817	PROB	1.955	n/a	n/a	-999	20	[2, 1, 3]	6.0	FR1	3	R1065J
2042.13	2.318	2090801	PROB	2.284	n/a	n/a	-999	20	[9, 3, 9]	21.0	FR1	3	R1065J
2044.448	1.916	2093119	PROB	1.893	n/a	n/a	-999	20	[4, 4, 9]	17.0	FR1	3	R1065J
2046.364	2.467	2095035	PROB	2.433	n/a	n/a	-999	20	[8, 4, 2]	14.0	FR1	3	R1065J
2048.831	2.743	2097502	PROB	2.743	n/a	n/a	-999	20	[5, 2, 1]	8.0	FR1	3	R1065J
2051.574	0.008	2100245	STOP	n/a	n/a	n/a	-999	20	[-999, -999, -999]	n/a	FR1	3	R1065J
2051.582	1.083	2100253	DISTRACT_END	n/a	n/a	n/a	-999	20	[0, 0, 0]	n/a	FR1	3	R1065J
2052.665	1.711	2101336	REC_START	n/a	n/a	n/a	-999	20	[0, 0, 0]	n/a	FR1	3	R1065J
2054.376	2.03	2103047	REC_WORD	1.711	n/a	STAR	-999	20	[0, 0, 0]	n/a	FR1	3	R1065J
2056.406	2.316	2105077	REC_WORD	3.741	n/a	CLOUD	-999	20	[0, 0, 0]	n/a	FR1	3	R1065J
2058.722	2.658	2107393	REC_WORD	6.057	n/a	SEA	-999	20	[0, 0, 0]	n/a	FR1	3	R1065J
2061.38	21.303	2110051	REC_WORD	8.715	n/a	PLANE	-999	20	[0, 0, 0]	n/a	FR1	3	R1065J
2082.683	4.453	2131355	REC_END	n/a	n/a	n/a	-999	20	[0, 0, 0]	n/a	FR1	3	R1065J
2087.136	10.0	2135808	COUNTDOWN_START	n/a	n/a	n/a	-999	21	[0, 0, 0]	n/a	FR1	3	R1065J
2087.137	10.427	2135809	TRIAL	n/a	n/a	n/a	-999	21	[0, 0, 0]	n/a	FR1	3	R1065J
2097.564	0.008	2146236	COUNTDOWN_END	n/a	n/a	n/a	-999	21	[0, 0, 0]	n/a	FR1	3	R1065J
2097.572	1.6	2146244	ORIENT	n/a	n/a	n/a	-999	21	[0, 0, 0]	n/a	FR1	3	R1065J
2099.988	1.6	2148660	WORD	n/a	wordpools/wordpool_EN.txt	RAKE	1	21	[0, 0, 0]	n/a	FR1	3	R1065J
2102.355	1.6	2151027	WORD	n/a	wordpools/wordpool_EN.txt	SPRING	2	21	[0, 0, 0]	n/a	FR1	3	R1065J
2104.822	1.6	2153494	WORD	n/a	wordpools/wordpool_EN.txt	WORM	3	21	[0, 0, 0]	n/a	FR1	3	R1065J
2107.407	1.6	2156079	WORD	n/a	wordpools/wordpool_EN.txt	BLUSH	4	21	[0, 0, 0]	n/a	FR1	3	R1065J
2110.006	1.6	2158678	WORD	n/a	wordpools/wordpool_EN.txt	MOLE	5	21	[0, 0, 0]	n/a	FR1	3	R1065J
2112.574	1.6	2161246	WORD	n/a	wordpools/wordpool_EN.txt	ROAD	6	21	[0, 0, 0]	n/a	FR1	3	R1065J
2115.174	1.6	2163846	WORD	n/a	wordpools/wordpool_EN.txt	LEAF	7	21	[0, 0, 0]	n/a	FR1	3	R1065J
2117.592	1.6	2166264	WORD	n/a	wordpools/wordpool_EN.txt	WEB	8	21	[0, 0, 0]	n/a	FR1	3	R1065J
2120.057	1.6	2168729	WORD	n/a	wordpools/wordpool_EN.txt	TAIL	9	21	[0, 0, 0]	n/a	FR1	3	R1065J
2122.526	1.6	2171198	WORD	n/a	wordpools/wordpool_EN.txt	BUSH	10	21	[0, 0, 0]	n/a	FR1	3	R1065J
2125.108	1.6	2173780	WORD	n/a	wordpools/wordpool_EN.txt	FLEA	11	21	[0, 0, 0]	n/a	FR1	3	R1065J
2127.742	1.6	2176414	WORD	n/a	wordpools/wordpool_EN.txt	CAGE	12	21	[0, 0, 0]	n/a	FR1	3	R1065J
2129.359	0.001	2178031	DISTRACT_START	n/a	n/a	n/a	-999	21	[0, 0, 0]	n/a	FR1	3	R1065J
2129.36	0.016	2178032	START	n/a	n/a	n/a	-999	21	[-999, -999, -999]	n/a	FR1	3	R1065J
2129.376	2.417	2178048	PROB	2.387	n/a	n/a	-999	21	[3, 6, 4]	13.0	FR1	3	R1065J
2131.793	2.217	2180465	PROB	2.185	n/a	n/a	-999	21	[6, 8, 2]	16.0	FR1	3	R1065J
2134.01	3.133	2182682	PROB	3.113	n/a	n/a	-999	21	[5, 4, 1]	10.0	FR1	3	R1065J
2137.143	2.017	2185815	PROB	1.987	n/a	n/a	-999	21	[6, 1, 4]	11.0	FR1	3	R1065J
2139.16	1.984	2187832	PROB	1.962	n/a	n/a	-999	21	[4, 2, 8]	14.0	FR1	3	R1065J
2141.144	2.0	2189816	PROB	1.971	n/a	n/a	-999	21	[6, 9, 4]	19.0	FR1	3	R1065J
2143.144	2.584	2191816	PROB	2.554	n/a	n/a	-999	21	[9, 9, 7]	25.0	FR1	3	R1065J
2145.728	2.034	2194400	PROB	2.002	n/a	n/a	-999	21	[7, 6, 4]	17.0	FR1	3	R1065J
2147.762	1.753	2196434	PROB	1.753	n/a	n/a	-999	21	[8, 2, 4]	14.0	FR1	3	R1065J
2149.515	0.015	2198187	STOP	n/a	n/a	n/a	-999	21	[-999, -999, -999]	n/a	FR1	3	R1065J
2149.53	1.083	2198202	DISTRACT_END	n/a	n/a	n/a	-999	21	[0, 0, 0]	n/a	FR1	3	R1065J
2150.613	1.606	2199285	REC_START	n/a	n/a	n/a	-999	21	[0, 0, 0]	n/a	FR1	3	R1065J
2152.219	2.03	2200891	REC_WORD	1.606	n/a	SPRING	-999	21	[0, 0, 0]	n/a	FR1	3	R1065J
2154.249	2.319	2202921	REC_WORD	3.636	n/a	BUSH	-999	21	[0, 0, 0]	n/a	FR1	3	R1065J
2156.568	2.083	2205240	REC_WORD	5.955	n/a	TAIL	-999	21	[0, 0, 0]	n/a	FR1	3	R1065J
2158.651	3.96	2207323	REC_WORD	8.038	n/a	RAKE	-999	21	[0, 0, 0]	n/a	FR1	3	R1065J
2162.611	18.018	2211283	REC_WORD	11.998	n/a	WORM	-999	21	[0, 0, 0]	n/a	FR1	3	R1065J
2180.629	2.554	2229301	REC_END	n/a	n/a	n/a	-999	21	[0, 0, 0]	n/a	FR1	3	R1065J
2183.183	0.0	2231855	TRIAL	n/a	n/a	n/a	-999	22	[0, 0, 0]	n/a	FR1	3	R1065J
2183.183	10.0	2231855	COUNTDOWN_START	n/a	n/a	n/a	-999	22	[0, 0, 0]	n/a	FR1	3	R1065J
2193.611	0.008	2242284	COUNTDOWN_END	n/a	n/a	n/a	-999	22	[0, 0, 0]	n/a	FR1	3	R1065J
2193.619	1.6	2242292	ORIENT	n/a	n/a	n/a	-999	22	[0, 0, 0]	n/a	FR1	3	R1065J
2196.102	1.6	2244775	WORD	n/a	wordpools/wordpool_EN.txt	CHIN	1	22	[0, 0, 0]	n/a	FR1	3	R1065J
2198.52	1.6	2247193	WORD	n/a	wordpools/wordpool_EN.txt	SEED	2	22	[0, 0, 0]	n/a	FR1	3	R1065J
2200.986	1.6	2249659	WORD	n/a	wordpools/wordpool_EN.txt	SOUP	3	22	[0, 0, 0]	n/a	FR1	3	R1065J
2203.587	1.6	2252260	WORD	n/a	wordpools/wordpool_EN.txt	VINE	4	22	[0, 0, 0]	n/a	FR1	3	R1065J
2206.153	1.6	2254826	WORD	n/a	wordpools/wordpool_EN.txt	CHAIR	5	22	[0, 0, 0]	n/a	FR1	3	R1065J
2208.687	1.6	2257360	WORD	n/a	wordpools/wordpool_EN.txt	BRANCH	6	22	[0, 0, 0]	n/a	FR1	3	R1065J
2211.204	1.6	2259877	WORD	n/a	wordpools/wordpool_EN.txt	FUDGE	7	22	[0, 0, 0]	n/a	FR1	3	R1065J
2213.589	1.6	2262262	WORD	n/a	wordpools/wordpool_EN.txt	FRUIT	8	22	[0, 0, 0]	n/a	FR1	3	R1065J
2216.005	1.6	2264678	WORD	n/a	wordpools/wordpool_EN.txt	JUICE	9	22	[0, 0, 0]	n/a	FR1	3	R1065J
2218.573	1.6	2267246	WORD	n/a	wordpools/wordpool_EN.txt	TOE	10	22	[0, 0, 0]	n/a	FR1	3	R1065J
2220.955	1.6	2269628	WORD	n/a	wordpools/wordpool_EN.txt	PIT	11	22	[0, 0, 0]	n/a	FR1	3	R1065J
2223.573	1.6	2272246	WORD	n/a	wordpools/wordpool_EN.txt	STEAK	12	22	[0, 0, 0]	n/a	FR1	3	R1065J
2225.189	0.001	2273862	DISTRACT_START	n/a	n/a	n/a	-999	22	[0, 0, 0]	n/a	FR1	3	R1065J
2225.19	0.016	2273863	START	n/a	n/a	n/a	-999	22	[-999, -999, -999]	n/a	FR1	3	R1065J
2225.206	7.235	2273879	PROB	7.211	n/a	n/a	-999	22	[7, 4, 1]	12.0	FR1	3	R1065J
2232.441	1.866	2281114	PROB	1.839	n/a	n/a	-999	22	[4, 2, 8]	14.0	FR1	3	R1065J
2234.307	1.717	2282980	PROB	1.693	n/a	n/a	-999	22	[1, 2, 5]	8.0	FR1	3	R1065J
2236.024	1.967	2284697	PROB	1.936	n/a	n/a	-999	22	[2, 6, 9]	17.0	FR1	3	R1065J
2237.991	1.883	2286664	PROB	1.848	n/a	n/a	-999	22	[3, 1, 8]	12.0	FR1	3	R1065J
2239.874	1.851	2288547	PROB	1.83	n/a	n/a	-999	22	[1, 4, 8]	13.0	FR1	3	R1065J
2241.725	1.768	2290398	PROB	1.747	n/a	n/a	-999	22	[8, 2, 7]	17.0	FR1	3	R1065J
2243.493	1.956	2292166	PROB	1.956	n/a	n/a	-999	22	[2, 2, 5]	9.0	FR1	3	R1065J
2245.449	0.011	2294122	STOP	n/a	n/a	n/a	-999	22	[-999, -999, -999]	n/a	FR1	3	R1065J
2245.46	1.084	2294133	DISTRACT_END	n/a	n/a	n/a	-999	22	[0, 0, 0]	n/a	FR1	3	R1065J
2246.544	3.88	2295217	REC_START	n/a	n/a	n/a	-999	22	[0, 0, 0]	n/a	FR1	3	R1065J
2250.424	1.994	2299097	REC_WORD	3.88	n/a	PIT	-999	22	[0, 0, 0]	n/a	FR1	3	R1065J
2252.418	2.286	2301091	REC_WORD	5.874	n/a	FRUIT	-999	22	[0, 0, 0]	n/a	FR1	3	R1065J
2254.704	4.111	2303377	REC_WORD	8.16	n/a	VINE	-999	22	[0, 0, 0]	n/a	FR1	3	R1065J
2258.815	6.154	2307488	REC_WORD	12.271	n/a	BRANCH	-999	22	[0, 0, 0]	n/a	FR1	3	R1065J
2264.969	11.588	2313642	REC_WORD	18.425	n/a	SEED	-999	22	[0, 0, 0]	n/a	FR1	3	R1065J
2276.557	2.14	2325230	REC_END	n/a	n/a	n/a	-999	22	[0, 0, 0]	n/a	FR1	3	R1065J
2278.697	0.0	2327370	TRIAL	n/a	n/a	n/a	-999	23	[0, 0, 0]	n/a	FR1	3	R1065J
2278.697	10.0	2327370	COUNTDOWN_START	n/a	n/a	n/a	-999	23	[0, 0, 0]	n/a	FR1	3	R1065J
2289.125	0.007	2337798	COUNTDOWN_END	n/a	n/a	n/a	-999	23	[0, 0, 0]	n/a	FR1	3	R1065J
2289.132	1.6	2337805	ORIENT	n/a	n/a	n/a	-999	23	[0, 0, 0]	n/a	FR1	3	R1065J
2291.649	1.6	2340322	WORD	n/a	wordpools/wordpool_EN.txt	DOOR	1	23	[0, 0, 0]	n/a	FR1	3	R1065J
2294.149	1.6	2342822	WORD	n/a	wordpools/wordpool_EN.txt	SMILE	2	23	[0, 0, 0]	n/a	FR1	3	R1065J
2296.766	1.6	2345439	WORD	n/a	wordpools/wordpool_EN.txt	CLOCK	3	23	[0, 0, 0]	n/a	FR1	3	R1065J
2299.15	1.6	2347823	WORD	n/a	wordpools/wordpool_EN.txt	OAR	4	23	[0, 0, 0]	n/a	FR1	3	R1065J
2301.733	1.6	2350406	WORD	n/a	wordpools/wordpool_EN.txt	LAMP	5	23	[0, 0, 0]	n/a	FR1	3	R1065J
2304.167	1.6	2352841	WORD	n/a	wordpools/wordpool_EN.txt	STOVE	6	23	[0, 0, 0]	n/a	FR1	3	R1065J
2306.701	1.6	2355375	WORD	n/a	wordpools/wordpool_EN.txt	FLOOR	7	23	[0, 0, 0]	n/a	FR1	3	R1065J
2309.251	1.6	2357925	WORD	n/a	wordpools/wordpool_EN.txt	PEN	8	23	[0, 0, 0]	n/a	FR1	3	R1065J
2311.801	1.6	2360475	WORD	n/a	wordpools/wordpool_EN.txt	STICK	9	23	[0, 0, 0]	n/a	FR1	3	R1065J
2314.185	1.6	2362859	WORD	n/a	wordpools/wordpool_EN.txt	BOOT	10	23	[0, 0, 0]	n/a	FR1	3	R1065J
2316.57	1.6	2365244	WORD	n/a	wordpools/wordpool_EN.txt	DIME	11	23	[0, 0, 0]	n/a	FR1	3	R1065J
2319.052	1.6	2367726	WORD	n/a	wordpools/wordpool_EN.txt	ARM	12	23	[0, 0, 0]	n/a	FR1	3	R1065J
2320.669	0.001	2369343	DISTRACT_START	n/a	n/a	n/a	-999	23	[0, 0, 0]	n/a	FR1	3	R1065J
2320.67	0.016	2369344	START	n/a	n/a	n/a	-999	23	[-999, -999, -999]	n/a	FR1	3	R1065J
2320.686	2.735	2369360	PROB	2.713	n/a	n/a	-999	23	[6, 9, 2]	17.0	FR1	3	R1065J
2323.421	2.299	2372095	PROB	2.272	n/a	n/a	-999	23	[8, 7, 8]	25.0	FR1	3	R1065J
2325.72	2.067	2374394	PROB	2.037	n/a	n/a	-999	23	[1, 5, 9]	14.0	FR1	3	R1065J
2327.787	1.801	2376461	PROB	1.779	n/a	n/a	-999	23	[1, 4, 6]	11.0	FR1	3	R1065J
2329.588	2.2	2378262	PROB	2.177	n/a	n/a	-999	23	[6, 1, 8]	15.0	FR1	3	R1065J
2331.788	2.784	2380462	PROB	2.754	n/a	n/a	-999	23	[4, 9, 2]	15.0	FR1	3	R1065J
2334.572	1.934	2383246	PROB	1.906	n/a	n/a	-999	23	[5, 2, 8]	15.0	FR1	3	R1065J
2336.506	1.816	2385180	PROB	1.795	n/a	n/a	-999	23	[2, 4, 4]	10.0	FR1	3	R1065J
2338.322	3.579	2386996	PROB	3.579	n/a	n/a	-999	23	[7, 3, 6]	16.0	FR1	3	R1065J
2341.901	0.004	2390575	STOP	n/a	n/a	n/a	-999	23	[-999, -999, -999]	n/a	FR1	3	R1065J
2341.905	1.101	2390579	DISTRACT_END	n/a	n/a	n/a	-999	23	[0, 0, 0]	n/a	FR1	3	R1065J
2343.006	7.741	2391680	REC_START	n/a	n/a	n/a	-999	23	[0, 0, 0]	n/a	FR1	3	R1065J
2350.747	1.714	2399421	REC_WORD	7.741	n/a	CLOCK	-999	23	[0, 0, 0]	n/a	FR1	3	R1065J
2352.461	2.615	2401135	REC_WORD	9.455	n/a	FLOOR	-999	23	[0, 0, 0]	n/a	FR1	3	R1065J
2355.076	17.947	2403750	REC_WORD	12.07	n/a	BOOT	-999	23	[0, 0, 0]	n/a	FR1	3	R1065J
2373.023	4.938	2421697	REC_END	n/a	n/a	n/a	-999	23	[0, 0, 0]	n/a	FR1	3	R1065J
2377.961	0.0	2426635	TRIAL	n/a	n/a	n/a	-999	24	[0, 0, 0]	n/a	FR1	3	R1065J
2377.961	10.0	2426635	COUNTDOWN_START	n/a	n/a	n/a	-999	24	[0, 0, 0]	n/a	FR1	3	R1065J
2388.389	0.008	2437063	COUNTDOWN_END	n/a	n/a	n/a	-999	24	[0, 0, 0]	n/a	FR1	3	R1065J
2388.397	1.6	2437071	ORIENT	n/a	n/a	n/a	-999	24	[0, 0, 0]	n/a	FR1	3	R1065J
2391.013	1.6	2439687	WORD	n/a	wordpools/wordpool_EN.txt	THUMB	1	24	[0, 0, 0]	n/a	FR1	3	R1065J
2393.464	1.6	2442138	WORD	n/a	wordpools/wordpool_EN.txt	SLEEVE	2	24	[0, 0, 0]	n/a	FR1	3	R1065J
2395.963	1.6	2444637	WORD	n/a	wordpools/wordpool_EN.txt	FROG	3	24	[0, 0, 0]	n/a	FR1	3	R1065J
2398.33	1.6	2447004	WORD	n/a	wordpools/wordpool_EN.txt	SUIT	4	24	[0, 0, 0]	n/a	FR1	3	R1065J
2400.797	1.6	2449471	WORD	n/a	wordpools/wordpool_EN.txt	BOARD	5	24	[0, 0, 0]	n/a	FR1	3	R1065J
2403.364	1.6	2452038	WORD	n/a	wordpools/wordpool_EN.txt	BRUSH	6	24	[0, 0, 0]	n/a	FR1	3	R1065J
2405.798	1.6	2454472	WORD	n/a	wordpools/wordpool_EN.txt	PIPE	7	24	[0, 0, 0]	n/a	FR1	3	R1065J
2408.182	1.6	2456856	WORD	n/a	wordpools/wordpool_EN.txt	NAIL	8	24	[0, 0, 0]	n/a	FR1	3	R1065J
2410.732	1.6	2459406	WORD	n/a	wordpools/wordpool_EN.txt	PURSE	9	24	[0, 0, 0]	n/a	FR1	3	R1065J
2413.133	1.6	2461807	WORD	n/a	wordpools/wordpool_EN.txt	FORK	10	24	[0, 0, 0]	n/a	FR1	3	R1065J
2415.733	1.6	2464407	WORD	n/a	wordpools/wordpool_EN.txt	BENCH	11	24	[0, 0, 0]	n/a	FR1	3	R1065J
2418.183	1.6	2466858	WORD	n/a	wordpools/wordpool_EN.txt	SINK	12	24	[0, 0, 0]	n/a	FR1	3	R1065J
2419.8	0.001	2468475	DISTRACT_START	n/a	n/a	n/a	-999	24	[0, 0, 0]	n/a	FR1	3	R1065J
2419.801	0.016	2468476	START	n/a	n/a	n/a	-999	24	[-999, -999, -999]	n/a	FR1	3	R1065J
2419.817	2.45	2468492	PROB	2.426	n/a	n/a	-999	24	[8, 1, 1]	10.0	FR1	3	R1065J
2422.267	2.185	2470942	PROB	2.153	n/a	n/a	-999	24	[1, 8, 8]	17.0	FR1	3	R1065J
2424.452	1.749	2473127	PROB	1.727	n/a	n/a	-999	24	[8, 3, 3]	14.0	FR1	3	R1065J
2426.201	1.917	2474876	PROB	1.882	n/a	n/a	-999	24	[4, 3, 2]	9.0	FR1	3	R1065J
2428.118	1.8	2476793	PROB	1.773	n/a	n/a	-999	24	[2, 1, 4]	7.0	FR1	3	R1065J
2429.918	2.951	2478593	PROB	2.925	n/a	n/a	-999	24	[6, 6, 8]	20.0	FR1	3	R1065J
2432.869	2.05	2481544	PROB	2.021	n/a	n/a	-999	24	[3, 3, 5]	11.0	FR1	3	R1065J
2434.919	3.384	2483594	PROB	3.364	n/a	n/a	-999	24	[6, 7, 9]	22.0	FR1	3	R1065J
2438.303	1.675	2486978	PROB	1.675	n/a	n/a	-999	24	[6, 1, 4]	11.0	FR1	3	R1065J
2439.978	0.008	2488653	STOP	n/a	n/a	n/a	-999	24	[-999, -999, -999]	n/a	FR1	3	R1065J
2439.986	1.084	2488661	DISTRACT_END	n/a	n/a	n/a	-999	24	[0, 0, 0]	n/a	FR1	3	R1065J
2441.07	18.535	2489745	REC_START	n/a	n/a	n/a	-999	24	[0, 0, 0]	n/a	FR1	3	R1065J
2459.605	11.482	2508280	REC_WORD	18.535	n/a	THUMB	-999	24	[0, 0, 0]	n/a	FR1	3	R1065J
2471.087	4.455	2519762	REC_END	n/a	n/a	n/a	-999	24	[0, 0, 0]	n/a	FR1	3	R1065J
2475.542	0.0	2524217	TRIAL	n/a	n/a	n/a	-999	25	[0, 0, 0]	n/a	FR1	3	R1065J
2475.542	10.0	2524217	COUNTDOWN_START	n/a	n/a	n/a	-999	25	[0, 0, 0]	n/a	FR1	3	R1065J
2485.97	0.006	2534645	COUNTDOWN_END	n/a	n/a	n/a	-999	25	[0, 0, 0]	n/a	FR1	3	R1065J
2485.976	1.6	2534651	ORIENT	n/a	n/a	n/a	-999	25	[0, 0, 0]	n/a	FR1	3	R1065J
2488.544	1.6	2537219	WORD	n/a	wordpools/wordpool_EN.txt	FLAME	1	25	[0, 0, 0]	n/a	FR1	3	R1065J
2491.11	1.6	2539785	WORD	n/a	wordpools/wordpool_EN.txt	SKI	2	25	[0, 0, 0]	n/a	FR1	3	R1065J
2493.528	1.6	2542203	WORD	n/a	wordpools/wordpool_EN.txt	PIN	3	25	[0, 0, 0]	n/a	FR1	3	R1065J
2496.028	1.6	2544703	WORD	n/a	wordpools/wordpool_EN.txt	APE	4	25	[0, 0, 0]	n/a	FR1	3	R1065J
2498.546	1.6	2547221	WORD	n/a	wordpools/wordpool_EN.txt	WAVE	5	25	[0, 0, 0]	n/a	FR1	3	R1065J
2501.062	1.6	2549737	WORD	n/a	wordpools/wordpool_EN.txt	BROOM	6	25	[0, 0, 0]	n/a	FR1	3	R1065J
2503.695	1.6	2552370	WORD	n/a	wordpools/wordpool_EN.txt	FUR	7	25	[0, 0, 0]	n/a	FR1	3	R1065J
2506.212	1.6	2554887	WORD	n/a	wordpools/wordpool_EN.txt	SNOW	8	25	[0, 0, 0]	n/a	FR1	3	R1065J
2508.813	1.6	2557488	WORD	n/a	wordpools/wordpool_EN.txt	FOG	9	25	[0, 0, 0]	n/a	FR1	3	R1065J
2511.431	1.6	2560106	WORD	n/a	wordpools/wordpool_EN.txt	BEACH	10	25	[0, 0, 0]	n/a	FR1	3	R1065J
2514.013	1.6	2562688	WORD	n/a	wordpools/wordpool_EN.txt	DRUM	11	25	[0, 0, 0]	n/a	FR1	3	R1065J
2516.482	1.6	2565157	WORD	n/a	wordpools/wordpool_EN.txt	LIP	12	25	[0, 0, 0]	n/a	FR1	3	R1065J
2518.098	0.0	2566773	DISTRACT_START	n/a	n/a	n/a	-999	25	[0, 0, 0]	n/a	FR1	3	R1065J
2518.098	0.016	2566773	START	n/a	n/a	n/a	-999	25	[-999, -999, -999]	n/a	FR1	3	R1065J
2518.114	2.485	2566789	PROB	2.455	n/a	n/a	-999	25	[5, 9, 2]	16.0	FR1	3	R1065J
2520.599	2.399	2569274	PROB	2.369	n/a	n/a	-999	25	[2, 3, 5]	10.0	FR1	3	R1065J
2522.998	2.284	2571673	PROB	2.25	n/a	n/a	-999	25	[2, 4, 2]	8.0	FR1	3	R1065J
2525.282	3.301	2573957	PROB	3.271	n/a	n/a	-999	25	[7, 6, 9]	22.0	FR1	3	R1065J
2528.583	1.733	2577258	PROB	1.697	n/a	n/a	-999	25	[1, 1, 6]	8.0	FR1	3	R1065J
2530.316	2.517	2578991	PROB	2.484	n/a	n/a	-999	25	[7, 4, 8]	19.0	FR1	3	R1065J
2532.833	2.284	2581509	PROB	2.263	n/a	n/a	-999	25	[8, 4, 3]	15.0	FR1	3	R1065J
2535.117	1.7	2583793	PROB	1.667	n/a	n/a	-999	25	[3, 1, 7]	11.0	FR1	3	R1065J
2536.817	1.903	2585493	PROB	1.903	n/a	n/a	-999	25	[1, 7, 9]	17.0	FR1	3	R1065J
2538.72	0.014	2587396	STOP	n/a	n/a	n/a	-999	25	[-999, -999, -999]	n/a	FR1	3	R1065J
2538.734	1.234	2587410	DISTRACT_END	n/a	n/a	n/a	-999	25	[0, 0, 0]	n/a	FR1	3	R1065J
2539.968	2.009	2588644	REC_START	n/a	n/a	n/a	-999	25	[0, 0, 0]	n/a	FR1	3	R1065J
2541.977	1.881	2590653	REC_WORD	2.009	n/a	SKI	-999	25	[0, 0, 0]	n/a	FR1	3	R1065J
2543.858	3.237	2592534	REC_WORD	3.89	n/a	SNOW	-999	25	[0, 0, 0]	n/a	FR1	3	R1065J
2547.095	22.883	2595771	REC_WORD	7.127	n/a	WAVE	-999	25	[0, 0, 0]	n/a	FR1	3	R1065J
2569.978	6.596	2618654	REC_END	n/a	n/a	n/a	-999	25	[0, 0, 0]	n/a	FR1	3	R1065J
2576.574	0.0	2625250	SESS_END	n/a	n/a	n/a	-999	25	[0, 0, 0]	n/a	FR1	3	R1065J
