onset	duration	sample	trial_type	response_time	stim_file	item_name	serialpos	list	test	answer	experiment	session	subject
0.0	11.862	107362	SESS_START	n/a	n/a	n/a	-999	-999	[0, 0, 0]	n/a	FR1	1	R1001P
11.862	10.0	113293	COUNTDOWN_START	n/a	n/a	n/a	-999	-999	[0, 0, 0]	n/a	FR1	1	R1001P
22.29	3.608	118506	COUNTDOWN_END	n/a	n/a	n/a	-999	-999	[0, 0, 0]	n/a	FR1	1	R1001P
25.898	1.6	120310	PRACTICE_WORD	n/a	n/a	FLOOD	1	-1	[0, 0, 0]	n/a	FR1	1	R1001P
28.432	1.6	121577	PRACTICE_WORD	n/a	n/a	TONGUE	2	-1	[0, 0, 0]	n/a	FR1	1	R1001P
30.915	1.6	122819	PRACTICE_WORD	n/a	n/a	RHINO	3	-1	[0, 0, 0]	n/a	FR1	1	R1001P
33.433	1.6	124078	PRACTICE_WORD	n/a	n/a	RING	4	-1	[0, 0, 0]	n/a	FR1	1	R1001P
35.833	1.6	125278	PRACTICE_WORD	n/a	n/a	COTTON	5	-1	[0, 0, 0]	n/a	FR1	1	R1001P
38.334	1.6	126528	PRACTICE_WORD	n/a	n/a	BEAM	6	-1	[0, 0, 0]	n/a	FR1	1	R1001P
40.8	1.6	127761	PRACTICE_WORD	n/a	n/a	WATCH	7	-1	[0, 0, 0]	n/a	FR1	1	R1001P
43.385	1.6	129053	PRACTICE_WORD	n/a	n/a	CHEST	8	-1	[0, 0, 0]	n/a	FR1	1	R1001P
45.801	1.6	130261	PRACTICE_WORD	n/a	n/a	WAGON	9	-1	[0, 0, 0]	n/a	FR1	1	R1001P
48.386	1.6	131554	PRACTICE_WORD	n/a	n/a	ATTIC	10	-1	[0, 0, 0]	n/a	FR1	1	R1001P
50.986	1.6	132854	PRACTICE_WORD	n/a	n/a	IRON	11	-1	[0, 0, 0]	n/a	FR1	1	R1001P
53.387	1.6	134054	PRACTICE_WORD	n/a	n/a	CAMEL	12	-1	[0, 0, 0]	n/a	FR1	1	R1001P
55.003	0.0	134862	PRACTICE_DISTRACT_START	n/a	n/a	n/a	-999	-1	[0, 0, 0]	n/a	FR1	1	R1001P
55.003	0.017	134862	START	n/a	n/a	n/a	-999	-1	[-999, -999, -999]	n/a	FR1	1	R1001P
55.02	8.452	134870	PROB	8.419	n/a	n/a	-999	-1	[9, 2, 6]	17.0	FR1	1	R1001P
63.472	8.985	139096	PROB	8.959	n/a	n/a	-999	-1	[6, 3, 8]	15.0	FR1	1	R1001P
72.457	3.855	143589	PROB	3.855	n/a	n/a	-999	-1	[4, 9, 1]	14.0	FR1	1	R1001P
76.312	0.013	145516	STOP	n/a	n/a	n/a	-999	-1	[-999, -999, -999]	n/a	FR1	1	R1001P
76.325	0.701	145522	PRACTICE_DISTRACT_END	n/a	n/a	n/a	-999	-1	[0, 0, 0]	n/a	FR1	1	R1001P
77.026	30.516	145873	PRACTICE_REC_START	n/a	n/a	n/a	-999	-1	[0, 0, 0]	n/a	FR1	1	R1001P
107.542	16.641	161130	PRACTICE_REC_END	n/a	n/a	n/a	-999	-1	[0, 0, 0]	n/a	FR1	1	R1001P
124.183	0.0	169450	TRIAL	n/a	n/a	n/a	-999	1	[0, 0, 0]	n/a	FR1	1	R1001P
124.183	10.0	169450	COUNTDOWN_START	n/a	n/a	n/a	-999	1	[0, 0, 0]	n/a	FR1	1	R1001P
134.611	0.008	174664	COUNTDOWN_END	n/a	n/a	n/a	-999	1	[0, 0, 0]	n/a	FR1	1	R1001P
134.619	1.6	174668	ORIENT	n/a	n/a	n/a	-999	1	[0, 0, 0]	n/a	FR1	1	R1001P
137.252	1.6	175984	WORD	n/a	wordpools/wordpool_EN.txt	PIPE	1	1	[0, 0, 0]	n/a	FR1	1	R1001P
139.869	1.6	177293	WORD	n/a	wordpools/wordpool_EN.txt	STRING	2	1	[0, 0, 0]	n/a	FR1	1	R1001P
142.27	1.6	178493	WORD	n/a	wordpools/wordpool_EN.txt	ROOM	3	1	[0, 0, 0]	n/a	FR1	1	R1001P
144.77	1.6	179743	WORD	n/a	wordpools/wordpool_EN.txt	DART	4	1	[0, 0, 0]	n/a	FR1	1	R1001P
147.355	1.6	181035	WORD	n/a	wordpools/wordpool_EN.txt	BAND	5	1	[0, 0, 0]	n/a	FR1	1	R1001P
149.788	1.6	182252	WORD	n/a	wordpools/wordpool_EN.txt	CHEEK	6	1	[0, 0, 0]	n/a	FR1	1	R1001P
152.373	1.6	183544	WORD	n/a	wordpools/wordpool_EN.txt	NEST	7	1	[0, 0, 0]	n/a	FR1	1	R1001P
154.755	1.6	184735	WORD	n/a	wordpools/wordpool_EN.txt	HAT	8	1	[0, 0, 0]	n/a	FR1	1	R1001P
157.206	1.6	185961	WORD	n/a	wordpools/wordpool_EN.txt	DOLL	9	1	[0, 0, 0]	n/a	FR1	1	R1001P
159.623	1.6	187169	WORD	n/a	wordpools/wordpool_EN.txt	BIRD	10	1	[0, 0, 0]	n/a	FR1	1	R1001P
162.223	1.6	188469	WORD	n/a	wordpools/wordpool_EN.txt	CRANE	11	1	[0, 0, 0]	n/a	FR1	1	R1001P
164.641	1.6	189678	WORD	n/a	wordpools/wordpool_EN.txt	TAIL	12	1	[0, 0, 0]	n/a	FR1	1	R1001P
166.257	0.001	190486	DISTRACT_START	n/a	n/a	n/a	-999	1	[0, 0, 0]	n/a	FR1	1	R1001P
166.258	0.016	190486	START	n/a	n/a	n/a	-999	1	[-999, -999, -999]	n/a	FR1	1	R1001P
166.274	4.818	190494	PROB	4.796	n/a	n/a	-999	1	[2, 3, 6]	11.0	FR1	1	R1001P
171.092	3.418	192903	PROB	3.387	n/a	n/a	-999	1	[2, 8, 6]	16.0	FR1	1	R1001P
174.51	5.851	194612	PROB	5.817	n/a	n/a	-999	1	[7, 4, 4]	1.0	FR1	1	R1001P
180.361	10.277	197538	PROB	10.277	n/a	n/a	-999	1	[9, 7, 4]	20.0	FR1	1	R1001P
190.638	0.007	202676	STOP	n/a	n/a	n/a	-999	1	[-999, -999, -999]	n/a	FR1	1	R1001P
190.645	1.068	202679	DISTRACT_END	n/a	n/a	n/a	-999	1	[0, 0, 0]	n/a	FR1	1	R1001P
191.713	1.953	203213	REC_START	n/a	n/a	n/a	-999	1	[0, 0, 0]	n/a	FR1	1	R1001P
193.666	2.611	204190	REC_WORD	1.953	n/a	TAIL	-999	1	[0, 0, 0]	n/a	FR1	1	R1001P
196.277	1.093	205495	REC_WORD	4.564	n/a	STRING	-999	1	[0, 0, 0]	n/a	FR1	1	R1001P
197.37	2.4	206042	REC_WORD	5.657	n/a	PIPE	-999	1	[0, 0, 0]	n/a	FR1	1	R1001P
199.77	21.953	207242	REC_WORD	8.057	n/a	SAND	-999	1	[0, 0, 0]	n/a	FR1	1	R1001P
221.723	2.112	218217	REC_END	n/a	n/a	n/a	-999	1	[0, 0, 0]	n/a	FR1	1	R1001P
223.835	0.0	219273	TRIAL	n/a	n/a	n/a	-999	2	[0, 0, 0]	n/a	FR1	1	R1001P
223.835	10.0	219273	COUNTDOWN_START	n/a	n/a	n/a	-999	2	[0, 0, 0]	n/a	FR1	1	R1001P
234.263	0.007	224487	COUNTDOWN_END	n/a	n/a	n/a	-999	2	[0, 0, 0]	n/a	FR1	1	R1001P
234.27	1.6	224491	ORIENT	n/a	n/a	n/a	-999	2	[0, 0, 0]	n/a	FR1	1	R1001P
236.854	1.6	225783	WORD	n/a	wordpools/wordpool_EN.txt	DUCK	1	2	[0, 0, 0]	n/a	FR1	1	R1001P
239.389	1.6	227050	WORD	n/a	wordpools/wordpool_EN.txt	ZOO	2	2	[0, 0, 0]	n/a	FR1	1	R1001P
241.905	1.6	228308	WORD	n/a	wordpools/wordpool_EN.txt	SOUP	3	2	[0, 0, 0]	n/a	FR1	1	R1001P
244.357	1.6	229534	WORD	n/a	wordpools/wordpool_EN.txt	CLAY	4	2	[0, 0, 0]	n/a	FR1	1	R1001P
246.772	1.6	230741	WORD	n/a	wordpools/wordpool_EN.txt	MOUSE	5	2	[0, 0, 0]	n/a	FR1	1	R1001P
249.324	1.6	232017	WORD	n/a	wordpools/wordpool_EN.txt	SKUNK	6	2	[0, 0, 0]	n/a	FR1	1	R1001P
251.774	1.6	233242	WORD	n/a	wordpools/wordpool_EN.txt	ANT	7	2	[0, 0, 0]	n/a	FR1	1	R1001P
254.358	1.6	234534	WORD	n/a	wordpools/wordpool_EN.txt	MOOSE	8	2	[0, 0, 0]	n/a	FR1	1	R1001P
256.775	1.6	235742	WORD	n/a	wordpools/wordpool_EN.txt	ROCK	9	2	[0, 0, 0]	n/a	FR1	1	R1001P
259.326	1.6	237018	WORD	n/a	wordpools/wordpool_EN.txt	SPONGE	10	2	[0, 0, 0]	n/a	FR1	1	R1001P
261.742	1.6	238226	WORD	n/a	wordpools/wordpool_EN.txt	TENT	11	2	[0, 0, 0]	n/a	FR1	1	R1001P
264.143	1.6	239426	WORD	n/a	wordpools/wordpool_EN.txt	SNAKE	12	2	[0, 0, 0]	n/a	FR1	1	R1001P
265.76	0.001	240235	DISTRACT_START	n/a	n/a	n/a	-999	2	[0, 0, 0]	n/a	FR1	1	R1001P
265.761	0.015	240235	START	n/a	n/a	n/a	-999	2	[-999, -999, -999]	n/a	FR1	1	R1001P
265.776	11.919	240243	PROB	11.886	n/a	n/a	-999	2	[4, 7, 6]	20.0	FR1	1	R1001P
277.695	7.335	246202	PROB	7.311	n/a	n/a	-999	2	[8, 4, 3]	1.0	FR1	1	R1001P
285.03	6.113	249869	PROB	6.113	n/a	n/a	-999	2	[2, 9, 4]	15.0	FR1	1	R1001P
291.143	0.005	252926	STOP	n/a	n/a	n/a	-999	2	[-999, -999, -999]	n/a	FR1	1	R1001P
291.148	1.152	252928	DISTRACT_END	n/a	n/a	n/a	-999	2	[0, 0, 0]	n/a	FR1	1	R1001P
292.3	1.534	253504	REC_START	n/a	n/a	n/a	-999	2	[0, 0, 0]	n/a	FR1	1	R1001P
293.834	0.685	254271	REC_WORD	1.534	n/a	DUCK	-999	2	[0, 0, 0]	n/a	FR1	1	R1001P
294.519	1.397	254613	REC_WORD	2.219	n/a	SOUP	-999	2	[0, 0, 0]	n/a	FR1	1	R1001P
295.916	1.14	255312	REC_WORD	3.616	n/a	ANT	-999	2	[0, 0, 0]	n/a	FR1	1	R1001P
297.056	2.369	255882	REC_WORD	4.756	n/a	CLAY	-999	2	[0, 0, 0]	n/a	FR1	1	R1001P
299.425	2.435	257066	REC_WORD	7.125	n/a	MOUSE	-999	2	[0, 0, 0]	n/a	FR1	1	R1001P
301.86	14.337	258284	REC_WORD	9.56	n/a	HAT	-999	2	[0, 0, 0]	n/a	FR1	1	R1001P
316.197	6.113	265452	REC_WORD	23.897	n/a	COTTON	-999	2	[0, 0, 0]	n/a	FR1	1	R1001P
322.31	5.711	268508	REC_END	n/a	n/a	n/a	-999	2	[0, 0, 0]	n/a	FR1	1	R1001P
328.021	10.0	271364	COUNTDOWN_START	n/a	n/a	n/a	-999	3	[0, 0, 0]	n/a	FR1	1	R1001P
328.022	10.427	271364	TRIAL	n/a	n/a	n/a	-999	3	[0, 0, 0]	n/a	FR1	1	R1001P
338.449	0.009	276577	COUNTDOWN_END	n/a	n/a	n/a	-999	3	[0, 0, 0]	n/a	FR1	1	R1001P
338.458	1.6	276582	ORIENT	n/a	n/a	n/a	-999	3	[0, 0, 0]	n/a	FR1	1	R1001P
340.84	1.6	277773	WORD	n/a	wordpools/wordpool_EN.txt	EAR	1	3	[0, 0, 0]	n/a	FR1	1	R1001P
343.258	1.6	278982	WORD	n/a	wordpools/wordpool_EN.txt	HOUSE	2	3	[0, 0, 0]	n/a	FR1	1	R1001P
345.841	1.6	280273	WORD	n/a	wordpools/wordpool_EN.txt	DOOR	3	3	[0, 0, 0]	n/a	FR1	1	R1001P
348.225	1.6	281465	WORD	n/a	wordpools/wordpool_EN.txt	STREET	4	3	[0, 0, 0]	n/a	FR1	1	R1001P
350.709	1.6	282707	WORD	n/a	wordpools/wordpool_EN.txt	DIME	5	3	[0, 0, 0]	n/a	FR1	1	R1001P
353.109	1.6	283907	WORD	n/a	wordpools/wordpool_EN.txt	BED	6	3	[0, 0, 0]	n/a	FR1	1	R1001P
355.594	1.6	285149	WORD	n/a	wordpools/wordpool_EN.txt	CAKE	7	3	[0, 0, 0]	n/a	FR1	1	R1001P
358.077	1.6	286391	WORD	n/a	wordpools/wordpool_EN.txt	CART	8	3	[0, 0, 0]	n/a	FR1	1	R1001P
360.512	1.6	287608	WORD	n/a	wordpools/wordpool_EN.txt	FENCE	9	3	[0, 0, 0]	n/a	FR1	1	R1001P
362.961	1.6	288833	WORD	n/a	wordpools/wordpool_EN.txt	CUP	10	3	[0, 0, 0]	n/a	FR1	1	R1001P
365.529	1.6	290116	WORD	n/a	wordpools/wordpool_EN.txt	SLUSH	11	3	[0, 0, 0]	n/a	FR1	1	R1001P
368.062	1.6	291383	WORD	n/a	wordpools/wordpool_EN.txt	STAIR	12	3	[0, 0, 0]	n/a	FR1	1	R1001P
369.679	0.001	292191	DISTRACT_START	n/a	n/a	n/a	-999	3	[0, 0, 0]	n/a	FR1	1	R1001P
369.68	0.016	292192	START	n/a	n/a	n/a	-999	3	[-999, -999, -999]	n/a	FR1	1	R1001P
369.696	11.085	292200	PROB	11.062	n/a	n/a	-999	3	[3, 4, 1]	8.0	FR1	1	R1001P
380.781	3.519	297742	PROB	3.489	n/a	n/a	-999	3	[1, 4, 8]	13.0	FR1	1	R1001P
384.3	10.802	299501	PROB	10.802	n/a	n/a	-999	3	[7, 6, 7]	20.0	FR1	1	R1001P
395.102	0.015	304902	STOP	n/a	n/a	n/a	-999	3	[-999, -999, -999]	n/a	FR1	1	R1001P
395.117	1.135	304910	DISTRACT_END	n/a	n/a	n/a	-999	3	[0, 0, 0]	n/a	FR1	1	R1001P
396.252	4.088	305477	REC_START	n/a	n/a	n/a	-999	3	[0, 0, 0]	n/a	FR1	1	R1001P
400.34	10.608	307521	REC_WORD	4.088	n/a	HOUSE	-999	3	[0, 0, 0]	n/a	FR1	1	R1001P
410.948	3.635	312825	REC_WORD	14.696	n/a	ANT	-999	3	[0, 0, 0]	n/a	FR1	1	R1001P
414.583	0.633	314642	REC_WORD	18.331	n/a	CLAY	-999	3	[0, 0, 0]	n/a	FR1	1	R1001P
415.216	5.34	314959	REC_WORD	18.964	n/a	COTTON	-999	3	[0, 0, 0]	n/a	FR1	1	R1001P
420.556	5.485	317628	REC_WORD	24.304	n/a	BARN	-999	3	[0, 0, 0]	n/a	FR1	1	R1001P
426.041	0.221	320371	REC_WORD	29.789	n/a	MOUSE	-999	3	[0, 0, 0]	n/a	FR1	1	R1001P
426.262	4.545	320481	REC_END	n/a	n/a	n/a	-999	3	[0, 0, 0]	n/a	FR1	1	R1001P
430.807	10.0	322754	COUNTDOWN_START	n/a	n/a	n/a	-999	4	[0, 0, 0]	n/a	FR1	1	R1001P
430.808	10.427	322754	TRIAL	n/a	n/a	n/a	-999	4	[0, 0, 0]	n/a	FR1	1	R1001P
441.235	0.008	327967	COUNTDOWN_END	n/a	n/a	n/a	-999	4	[0, 0, 0]	n/a	FR1	1	R1001P
441.243	1.6	327971	ORIENT	n/a	n/a	n/a	-999	4	[0, 0, 0]	n/a	FR1	1	R1001P
443.826	1.6	329263	WORD	n/a	wordpools/wordpool_EN.txt	MULE	1	4	[0, 0, 0]	n/a	FR1	1	R1001P
446.378	1.6	330539	WORD	n/a	wordpools/wordpool_EN.txt	STORM	2	4	[0, 0, 0]	n/a	FR1	1	R1001P
448.877	1.6	331788	WORD	n/a	wordpools/wordpool_EN.txt	HEN	3	4	[0, 0, 0]	n/a	FR1	1	R1001P
451.379	1.6	333039	WORD	n/a	wordpools/wordpool_EN.txt	EGG	4	4	[0, 0, 0]	n/a	FR1	1	R1001P
453.962	1.6	334331	WORD	n/a	wordpools/wordpool_EN.txt	SKI	5	4	[0, 0, 0]	n/a	FR1	1	R1001P
456.563	1.6	335631	WORD	n/a	wordpools/wordpool_EN.txt	PEN	6	4	[0, 0, 0]	n/a	FR1	1	R1001P
459.163	1.6	336931	WORD	n/a	wordpools/wordpool_EN.txt	FORT	7	4	[0, 0, 0]	n/a	FR1	1	R1001P
461.564	1.6	338131	WORD	n/a	wordpools/wordpool_EN.txt	BEAK	8	4	[0, 0, 0]	n/a	FR1	1	R1001P
463.964	1.6	339331	WORD	n/a	wordpools/wordpool_EN.txt	SAIL	9	4	[0, 0, 0]	n/a	FR1	1	R1001P
466.382	1.6	340540	WORD	n/a	wordpools/wordpool_EN.txt	FARM	10	4	[0, 0, 0]	n/a	FR1	1	R1001P
468.898	1.6	341798	WORD	n/a	wordpools/wordpool_EN.txt	FUR	11	4	[0, 0, 0]	n/a	FR1	1	R1001P
471.316	1.6	343007	WORD	n/a	wordpools/wordpool_EN.txt	TRAIN	12	4	[0, 0, 0]	n/a	FR1	1	R1001P
472.932	0.001	343815	DISTRACT_START	n/a	n/a	n/a	-999	4	[0, 0, 0]	n/a	FR1	1	R1001P
472.933	0.016	343816	START	n/a	n/a	n/a	-999	4	[-999, -999, -999]	n/a	FR1	1	R1001P
472.949	22.121	343824	PROB	22.121	n/a	n/a	-999	4	[6, 2, 2]	10.0	FR1	1	R1001P
495.07	0.016	354883	STOP	n/a	n/a	n/a	-999	4	[-999, -999, -999]	n/a	FR1	1	R1001P
495.086	1.219	354891	DISTRACT_END	n/a	n/a	n/a	-999	4	[0, 0, 0]	n/a	FR1	1	R1001P
496.305	1.631	355501	REC_START	n/a	n/a	n/a	-999	4	[0, 0, 0]	n/a	FR1	1	R1001P
497.936	2.438	356316	REC_WORD	1.631	n/a	HEN	-999	4	[0, 0, 0]	n/a	FR1	1	R1001P
500.374	1.196	357535	REC_WORD	4.069	n/a	SKY	-999	4	[0, 0, 0]	n/a	FR1	1	R1001P
501.57	7.285	358133	REC_WORD	5.265	n/a	BEAK	-999	4	[0, 0, 0]	n/a	FR1	1	R1001P
508.855	17.461	361776	REC_WORD	12.55	n/a	SUMMER	-999	4	[0, 0, 0]	n/a	FR1	1	R1001P
526.316	1.96	370506	REC_END	n/a	n/a	n/a	-999	4	[0, 0, 0]	n/a	FR1	1	R1001P
528.276	0.0	371486	TRIAL	n/a	n/a	n/a	-999	5	[0, 0, 0]	n/a	FR1	1	R1001P
528.276	10.0	371486	COUNTDOWN_START	n/a	n/a	n/a	-999	5	[0, 0, 0]	n/a	FR1	1	R1001P
538.704	0.007	376699	COUNTDOWN_END	n/a	n/a	n/a	-999	5	[0, 0, 0]	n/a	FR1	1	R1001P
538.711	1.6	376703	ORIENT	n/a	n/a	n/a	-999	5	[0, 0, 0]	n/a	FR1	1	R1001P
541.262	1.6	377978	WORD	n/a	wordpools/wordpool_EN.txt	TEA	1	5	[0, 0, 0]	n/a	FR1	1	R1001P
543.862	1.6	379278	WORD	n/a	wordpools/wordpool_EN.txt	SHRIMP	2	5	[0, 0, 0]	n/a	FR1	1	R1001P
546.38	1.6	380537	WORD	n/a	wordpools/wordpool_EN.txt	LAMP	3	5	[0, 0, 0]	n/a	FR1	1	R1001P
548.813	1.6	381753	WORD	n/a	wordpools/wordpool_EN.txt	SUIT	4	5	[0, 0, 0]	n/a	FR1	1	R1001P
551.197	1.6	382945	WORD	n/a	wordpools/wordpool_EN.txt	FOOD	5	5	[0, 0, 0]	n/a	FR1	1	R1001P
553.647	1.6	384170	WORD	n/a	wordpools/wordpool_EN.txt	TOE	6	5	[0, 0, 0]	n/a	FR1	1	R1001P
556.131	1.6	385412	WORD	n/a	wordpools/wordpool_EN.txt	HOOF	7	5	[0, 0, 0]	n/a	FR1	1	R1001P
558.583	1.6	386638	WORD	n/a	wordpools/wordpool_EN.txt	ROOT	8	5	[0, 0, 0]	n/a	FR1	1	R1001P
560.982	1.6	387838	WORD	n/a	wordpools/wordpool_EN.txt	BEAN	9	5	[0, 0, 0]	n/a	FR1	1	R1001P
563.533	1.6	389113	WORD	n/a	wordpools/wordpool_EN.txt	RAKE	10	5	[0, 0, 0]	n/a	FR1	1	R1001P
565.983	1.6	390338	WORD	n/a	wordpools/wordpool_EN.txt	SOCK	11	5	[0, 0, 0]	n/a	FR1	1	R1001P
568.468	1.6	391580	WORD	n/a	wordpools/wordpool_EN.txt	BATH	12	5	[0, 0, 0]	n/a	FR1	1	R1001P
570.084	0.001	392388	DISTRACT_START	n/a	n/a	n/a	-999	5	[0, 0, 0]	n/a	FR1	1	R1001P
570.085	0.015	392389	START	n/a	n/a	n/a	-999	5	[-999, -999, -999]	n/a	FR1	1	R1001P
570.1	18.887	392396	PROB	18.858	n/a	n/a	-999	5	[5, 3, 8]	16.0	FR1	1	R1001P
588.987	9.332	401839	PROB	9.332	n/a	n/a	-999	5	[7, 7, 6]	20.0	FR1	1	R1001P
598.319	0.004	406505	STOP	n/a	n/a	n/a	-999	5	[-999, -999, -999]	n/a	FR1	1	R1001P
598.323	1.103	406507	DISTRACT_END	n/a	n/a	n/a	-999	5	[0, 0, 0]	n/a	FR1	1	R1001P
599.426	1.61	407059	REC_START	n/a	n/a	n/a	-999	5	[0, 0, 0]	n/a	FR1	1	R1001P
601.036	1.464	407864	REC_WORD	1.61	n/a	TEA	-999	5	[0, 0, 0]	n/a	FR1	1	R1001P
602.5	1.363	408596	REC_WORD	3.074	n/a	RAKE	-999	5	[0, 0, 0]	n/a	FR1	1	R1001P
603.863	1.872	409277	REC_WORD	4.437	n/a	SKY	-999	5	[0, 0, 0]	n/a	FR1	1	R1001P
605.735	4.342	410213	REC_WORD	6.309	n/a	BATH	-999	5	[0, 0, 0]	n/a	FR1	1	R1001P
610.077	19.357	412384	REC_WORD	10.651	n/a	WHEEL	-999	5	[0, 0, 0]	n/a	FR1	1	R1001P
629.434	2.228	422062	REC_END	n/a	n/a	n/a	-999	5	[0, 0, 0]	n/a	FR1	1	R1001P
631.662	0.0	423176	TRIAL	n/a	n/a	n/a	-999	6	[0, 0, 0]	n/a	FR1	1	R1001P
631.662	10.0	423176	COUNTDOWN_START	n/a	n/a	n/a	-999	6	[0, 0, 0]	n/a	FR1	1	R1001P
642.09	0.007	428389	COUNTDOWN_END	n/a	n/a	n/a	-999	6	[0, 0, 0]	n/a	FR1	1	R1001P
642.097	1.6	428393	ORIENT	n/a	n/a	n/a	-999	6	[0, 0, 0]	n/a	FR1	1	R1001P
644.599	1.6	429644	WORD	n/a	wordpools/wordpool_EN.txt	SOAP	1	6	[0, 0, 0]	n/a	FR1	1	R1001P
646.981	1.6	430835	WORD	n/a	wordpools/wordpool_EN.txt	GRAPE	2	6	[0, 0, 0]	n/a	FR1	1	R1001P
649.383	1.6	432036	WORD	n/a	wordpools/wordpool_EN.txt	FLUTE	3	6	[0, 0, 0]	n/a	FR1	1	R1001P
651.816	1.6	433252	WORD	n/a	wordpools/wordpool_EN.txt	BENCH	4	6	[0, 0, 0]	n/a	FR1	1	R1001P
654.266	1.6	434477	WORD	n/a	wordpools/wordpool_EN.txt	FAN	5	6	[0, 0, 0]	n/a	FR1	1	R1001P
656.883	1.6	435786	WORD	n/a	wordpools/wordpool_EN.txt	JUICE	6	6	[0, 0, 0]	n/a	FR1	1	R1001P
659.485	1.6	437086	WORD	n/a	wordpools/wordpool_EN.txt	FRUIT	7	6	[0, 0, 0]	n/a	FR1	1	R1001P
662.068	1.6	438378	WORD	n/a	wordpools/wordpool_EN.txt	COUCH	8	6	[0, 0, 0]	n/a	FR1	1	R1001P
664.569	1.6	439628	WORD	n/a	wordpools/wordpool_EN.txt	GLASS	9	6	[0, 0, 0]	n/a	FR1	1	R1001P
667.119	1.6	440903	WORD	n/a	wordpools/wordpool_EN.txt	BOWL	10	6	[0, 0, 0]	n/a	FR1	1	R1001P
669.636	1.6	442162	WORD	n/a	wordpools/wordpool_EN.txt	BOOT	11	6	[0, 0, 0]	n/a	FR1	1	R1001P
672.103	1.6	443395	WORD	n/a	wordpools/wordpool_EN.txt	CANE	12	6	[0, 0, 0]	n/a	FR1	1	R1001P
673.72	0.001	444204	DISTRACT_START	n/a	n/a	n/a	-999	6	[0, 0, 0]	n/a	FR1	1	R1001P
673.721	0.015	444204	START	n/a	n/a	n/a	-999	6	[-999, -999, -999]	n/a	FR1	1	R1001P
673.736	20.502	444212	PROB	20.502	n/a	n/a	-999	6	[5, 3, 1]	9.0	FR1	1	R1001P
694.238	0.019	454462	STOP	n/a	n/a	n/a	-999	6	[-999, -999, -999]	n/a	FR1	1	R1001P
694.257	1.185	454472	DISTRACT_END	n/a	n/a	n/a	-999	6	[0, 0, 0]	n/a	FR1	1	R1001P
695.442	1.613	455064	REC_START	n/a	n/a	n/a	-999	6	[0, 0, 0]	n/a	FR1	1	R1001P
697.055	1.218	455870	REC_WORD	1.613	n/a	FAN	-999	6	[0, 0, 0]	n/a	FR1	1	R1001P
698.273	1.976	456479	REC_WORD	2.831	n/a	JUICE	-999	6	[0, 0, 0]	n/a	FR1	1	R1001P
700.249	2.201	457467	REC_WORD	4.807	n/a	COUCH	-999	6	[0, 0, 0]	n/a	FR1	1	R1001P
702.45	1.645	458568	REC_WORD	7.008	n/a	BOWL	-999	6	[0, 0, 0]	n/a	FR1	1	R1001P
704.095	2.196	459390	REC_WORD	8.653	n/a	GLASS	-999	6	[0, 0, 0]	n/a	FR1	1	R1001P
706.291	19.166	460488	REC_WORD	10.849	n/a	CUP	-999	6	[0, 0, 0]	n/a	FR1	1	R1001P
725.457	4.407	470071	REC_END	n/a	n/a	n/a	-999	6	[0, 0, 0]	n/a	FR1	1	R1001P
729.864	0.0	472274	TRIAL	n/a	n/a	n/a	-999	7	[0, 0, 0]	n/a	FR1	1	R1001P
729.864	10.0	472274	COUNTDOWN_START	n/a	n/a	n/a	-999	7	[0, 0, 0]	n/a	FR1	1	R1001P
740.292	0.008	477488	COUNTDOWN_END	n/a	n/a	n/a	-999	7	[0, 0, 0]	n/a	FR1	1	R1001P
740.3	1.6	477492	ORIENT	n/a	n/a	n/a	-999	7	[0, 0, 0]	n/a	FR1	1	R1001P
742.799	1.6	478741	WORD	n/a	wordpools/wordpool_EN.txt	SEAL	1	7	[0, 0, 0]	n/a	FR1	1	R1001P
745.284	1.6	479984	WORD	n/a	wordpools/wordpool_EN.txt	GOLD	2	7	[0, 0, 0]	n/a	FR1	1	R1001P
747.8	1.6	481242	WORD	n/a	wordpools/wordpool_EN.txt	GUARD	3	7	[0, 0, 0]	n/a	FR1	1	R1001P
750.335	1.6	482509	WORD	n/a	wordpools/wordpool_EN.txt	NAIL	4	7	[0, 0, 0]	n/a	FR1	1	R1001P
752.918	1.6	483800	WORD	n/a	wordpools/wordpool_EN.txt	SQUARE	5	7	[0, 0, 0]	n/a	FR1	1	R1001P
755.486	1.6	485084	WORD	n/a	wordpools/wordpool_EN.txt	CAPE	6	7	[0, 0, 0]	n/a	FR1	1	R1001P
758.069	1.6	486376	WORD	n/a	wordpools/wordpool_EN.txt	TOOL	7	7	[0, 0, 0]	n/a	FR1	1	R1001P
760.521	1.6	487602	WORD	n/a	wordpools/wordpool_EN.txt	CROWN	8	7	[0, 0, 0]	n/a	FR1	1	R1001P
763.003	1.6	488843	WORD	n/a	wordpools/wordpool_EN.txt	SWORD	9	7	[0, 0, 0]	n/a	FR1	1	R1001P
765.571	1.6	490127	WORD	n/a	wordpools/wordpool_EN.txt	HAND	10	7	[0, 0, 0]	n/a	FR1	1	R1001P
768.071	1.6	491376	WORD	n/a	wordpools/wordpool_EN.txt	BLUSH	11	7	[0, 0, 0]	n/a	FR1	1	R1001P
770.589	1.6	492635	WORD	n/a	wordpools/wordpool_EN.txt	PIT	12	7	[0, 0, 0]	n/a	FR1	1	R1001P
772.205	0.001	493443	DISTRACT_START	n/a	n/a	n/a	-999	7	[0, 0, 0]	n/a	FR1	1	R1001P
772.206	0.016	493444	START	n/a	n/a	n/a	-999	7	[-999, -999, -999]	n/a	FR1	1	R1001P
772.222	13.17	493452	PROB	13.138	n/a	n/a	-999	7	[2, 4, 4]	10.0	FR1	1	R1001P
785.392	4.683	500037	PROB	4.654	n/a	n/a	-999	7	[9, 7, 1]	17.0	FR1	1	R1001P
790.075	5.276	502378	PROB	5.276	n/a	n/a	-999	7	[7, 4, 1]	12.0	FR1	1	R1001P
795.351	0.009	505016	STOP	n/a	n/a	n/a	-999	7	[-999, -999, -999]	n/a	FR1	1	R1001P
795.36	1.085	505020	DISTRACT_END	n/a	n/a	n/a	-999	7	[0, 0, 0]	n/a	FR1	1	R1001P
796.445	1.553	505563	REC_START	n/a	n/a	n/a	-999	7	[0, 0, 0]	n/a	FR1	1	R1001P
797.998	1.994	506339	REC_WORD	1.553	n/a	PAN	-999	7	[0, 0, 0]	n/a	FR1	1	R1001P
799.992	1.537	507336	REC_WORD	3.547	n/a	BLUSH	-999	7	[0, 0, 0]	n/a	FR1	1	R1001P
801.529	9.396	508105	REC_WORD	5.084	n/a	PIT	-999	7	[0, 0, 0]	n/a	FR1	1	R1001P
810.925	2.162	512802	REC_WORD	14.48	n/a	TOOL	-999	7	[0, 0, 0]	n/a	FR1	1	R1001P
813.087	3.25	513883	REC_WORD	16.642	n/a	NAIL	-999	7	[0, 0, 0]	n/a	FR1	1	R1001P
816.337	10.118	515508	REC_WORD	19.892	n/a	TOE	-999	7	[0, 0, 0]	n/a	FR1	1	R1001P
826.455	1.811	520567	REC_END	n/a	n/a	n/a	-999	7	[0, 0, 0]	n/a	FR1	1	R1001P
828.266	0.0	521472	TRIAL	n/a	n/a	n/a	-999	8	[0, 0, 0]	n/a	FR1	1	R1001P
828.266	10.0	521472	COUNTDOWN_START	n/a	n/a	n/a	-999	8	[0, 0, 0]	n/a	FR1	1	R1001P
838.694	0.007	526686	COUNTDOWN_END	n/a	n/a	n/a	-999	8	[0, 0, 0]	n/a	FR1	1	R1001P
838.701	1.6	526690	ORIENT	n/a	n/a	n/a	-999	8	[0, 0, 0]	n/a	FR1	1	R1001P
841.235	1.6	527956	WORD	n/a	wordpools/wordpool_EN.txt	SCHOOL	1	8	[0, 0, 0]	n/a	FR1	1	R1001P
843.852	1.6	529265	WORD	n/a	wordpools/wordpool_EN.txt	PIN	2	8	[0, 0, 0]	n/a	FR1	1	R1001P
846.453	1.6	530565	WORD	n/a	wordpools/wordpool_EN.txt	CLOCK	3	8	[0, 0, 0]	n/a	FR1	1	R1001P
848.903	1.6	531790	WORD	n/a	wordpools/wordpool_EN.txt	FLAG	4	8	[0, 0, 0]	n/a	FR1	1	R1001P
851.521	1.6	533099	WORD	n/a	wordpools/wordpool_EN.txt	THUMB	5	8	[0, 0, 0]	n/a	FR1	1	R1001P
854.104	1.6	534391	WORD	n/a	wordpools/wordpool_EN.txt	BOY	6	8	[0, 0, 0]	n/a	FR1	1	R1001P
856.704	1.6	535691	WORD	n/a	wordpools/wordpool_EN.txt	WORLD	7	8	[0, 0, 0]	n/a	FR1	1	R1001P
859.221	1.6	536949	WORD	n/a	wordpools/wordpool_EN.txt	DESK	8	8	[0, 0, 0]	n/a	FR1	1	R1001P
861.689	1.6	538183	WORD	n/a	wordpools/wordpool_EN.txt	BRIDGE	9	8	[0, 0, 0]	n/a	FR1	1	R1001P
864.139	1.6	539408	WORD	n/a	wordpools/wordpool_EN.txt	THREAD	10	8	[0, 0, 0]	n/a	FR1	1	R1001P
866.739	1.6	540708	WORD	n/a	wordpools/wordpool_EN.txt	INK	11	8	[0, 0, 0]	n/a	FR1	1	R1001P
869.291	1.6	541984	WORD	n/a	wordpools/wordpool_EN.txt	POOL	12	8	[0, 0, 0]	n/a	FR1	1	R1001P
870.907	0.001	542792	DISTRACT_START	n/a	n/a	n/a	-999	8	[0, 0, 0]	n/a	FR1	1	R1001P
870.908	0.016	542792	START	n/a	n/a	n/a	-999	8	[-999, -999, -999]	n/a	FR1	1	R1001P
870.924	40.986	542800	PROB	40.986	n/a	n/a	-999	8	[8, 6, 1]	15.0	FR1	1	R1001P
911.91	0.005	563292	STOP	n/a	n/a	n/a	-999	8	[-999, -999, -999]	n/a	FR1	1	R1001P
911.915	1.217	563295	DISTRACT_END	n/a	n/a	n/a	-999	8	[0, 0, 0]	n/a	FR1	1	R1001P
913.132	30.011	563903	REC_START	n/a	n/a	n/a	-999	8	[0, 0, 0]	n/a	FR1	1	R1001P
943.143	0.003	578908	REC_WORD_VV	30.011	n/a	<>	-999	8	[0, 0, 0]	n/a	FR1	1	R1001P
943.146	3.075	578909	REC_END	n/a	n/a	n/a	-999	8	[0, 0, 0]	n/a	FR1	1	R1001P
946.221	0.0	580447	TRIAL	n/a	n/a	n/a	-999	9	[0, 0, 0]	n/a	FR1	1	R1001P
946.221	10.0	580447	COUNTDOWN_START	n/a	n/a	n/a	-999	9	[0, 0, 0]	n/a	FR1	1	R1001P
956.649	0.007	585660	COUNTDOWN_END	n/a	n/a	n/a	-999	9	[0, 0, 0]	n/a	FR1	1	R1001P
956.656	1.6	585664	ORIENT	n/a	n/a	n/a	-999	9	[0, 0, 0]	n/a	FR1	1	R1001P
959.09	1.6	586881	WORD	n/a	wordpools/wordpool_EN.txt	MAIL	1	9	[0, 0, 0]	n/a	FR1	1	R1001P
961.624	1.6	588148	WORD	n/a	wordpools/wordpool_EN.txt	BANK	2	9	[0, 0, 0]	n/a	FR1	1	R1001P
964.208	1.6	589440	WORD	n/a	wordpools/wordpool_EN.txt	STORE	3	9	[0, 0, 0]	n/a	FR1	1	R1001P
966.775	1.6	590723	WORD	n/a	wordpools/wordpool_EN.txt	LAWN	4	9	[0, 0, 0]	n/a	FR1	1	R1001P
969.192	1.6	591931	WORD	n/a	wordpools/wordpool_EN.txt	PHONE	5	9	[0, 0, 0]	n/a	FR1	1	R1001P
971.659	1.6	593165	WORD	n/a	wordpools/wordpool_EN.txt	KEY	6	9	[0, 0, 0]	n/a	FR1	1	R1001P
974.176	1.6	594423	WORD	n/a	wordpools/wordpool_EN.txt	FUDGE	7	9	[0, 0, 0]	n/a	FR1	1	R1001P
976.693	1.6	595682	WORD	n/a	wordpools/wordpool_EN.txt	CASH	8	9	[0, 0, 0]	n/a	FR1	1	R1001P
979.144	1.6	596907	WORD	n/a	wordpools/wordpool_EN.txt	WALL	9	9	[0, 0, 0]	n/a	FR1	1	R1001P
981.644	1.6	598157	WORD	n/a	wordpools/wordpool_EN.txt	MILK	10	9	[0, 0, 0]	n/a	FR1	1	R1001P
984.162	1.6	599416	WORD	n/a	wordpools/wordpool_EN.txt	FOG	11	9	[0, 0, 0]	n/a	FR1	1	R1001P
986.745	1.6	600708	WORD	n/a	wordpools/wordpool_EN.txt	HEART	12	9	[0, 0, 0]	n/a	FR1	1	R1001P
988.347	0.0	601508	DISTRACT_START	n/a	n/a	n/a	-999	9	[0, 0, 0]	n/a	FR1	1	R1001P
988.347	0.016	601508	START	n/a	n/a	n/a	-999	9	[-999, -999, -999]	n/a	FR1	1	R1001P
988.363	14.469	601516	PROB	14.444	n/a	n/a	-999	9	[6, 6, 2]	14.0	FR1	1	R1001P
1002.832	2.35	608751	PROB	2.318	n/a	n/a	-999	9	[2, 8, 2]	12.0	FR1	1	R1001P
1005.182	8.536	609926	PROB	8.536	n/a	n/a	-999	9	[8, 7, 6]	21.0	FR1	1	R1001P
1013.718	0.016	614193	STOP	n/a	n/a	n/a	-999	9	[-999, -999, -999]	n/a	FR1	1	R1001P
1013.734	1.084	614201	DISTRACT_END	n/a	n/a	n/a	-999	9	[0, 0, 0]	n/a	FR1	1	R1001P
1014.818	1.206	614743	REC_START	n/a	n/a	n/a	-999	9	[0, 0, 0]	n/a	FR1	1	R1001P
1016.024	1.672	615346	REC_WORD	1.206	n/a	NAIL	-999	9	[0, 0, 0]	n/a	FR1	1	R1001P
1017.696	1.978	616182	REC_WORD	2.878	n/a	CASH	-999	9	[0, 0, 0]	n/a	FR1	1	R1001P
1019.674	3.541	617171	REC_WORD	4.856	n/a	STORM	-999	9	[0, 0, 0]	n/a	FR1	1	R1001P
1023.215	21.612	618942	REC_WORD	8.397	n/a	MILK	-999	9	[0, 0, 0]	n/a	FR1	1	R1001P
1044.827	2.43	629747	REC_END	n/a	n/a	n/a	-999	9	[0, 0, 0]	n/a	FR1	1	R1001P
1047.257	0.0	630962	TRIAL	n/a	n/a	n/a	-999	10	[0, 0, 0]	n/a	FR1	1	R1001P
1047.257	10.0	630962	COUNTDOWN_START	n/a	n/a	n/a	-999	10	[0, 0, 0]	n/a	FR1	1	R1001P
1057.685	0.007	636176	COUNTDOWN_END	n/a	n/a	n/a	-999	10	[0, 0, 0]	n/a	FR1	1	R1001P
1057.692	1.6	636179	ORIENT	n/a	n/a	n/a	-999	10	[0, 0, 0]	n/a	FR1	1	R1001P
1060.176	1.6	637421	WORD	n/a	wordpools/wordpool_EN.txt	PASTE	1	10	[0, 0, 0]	n/a	FR1	1	R1001P
1062.726	1.6	638696	WORD	n/a	wordpools/wordpool_EN.txt	PEAR	2	10	[0, 0, 0]	n/a	FR1	1	R1001P
1065.328	1.6	639997	WORD	n/a	wordpools/wordpool_EN.txt	LEG	3	10	[0, 0, 0]	n/a	FR1	1	R1001P
1067.761	1.6	641213	WORD	n/a	wordpools/wordpool_EN.txt	APE	4	10	[0, 0, 0]	n/a	FR1	1	R1001P
1070.295	1.6	642480	WORD	n/a	wordpools/wordpool_EN.txt	CONE	5	10	[0, 0, 0]	n/a	FR1	1	R1001P
1072.795	1.6	643730	WORD	n/a	wordpools/wordpool_EN.txt	SEED	6	10	[0, 0, 0]	n/a	FR1	1	R1001P
1075.396	1.6	645031	WORD	n/a	wordpools/wordpool_EN.txt	CLOTH	7	10	[0, 0, 0]	n/a	FR1	1	R1001P
1077.879	1.6	646272	WORD	n/a	wordpools/wordpool_EN.txt	LEAF	8	10	[0, 0, 0]	n/a	FR1	1	R1001P
1080.314	1.6	647489	WORD	n/a	wordpools/wordpool_EN.txt	RAT	9	10	[0, 0, 0]	n/a	FR1	1	R1001P
1082.83	1.6	648747	WORD	n/a	wordpools/wordpool_EN.txt	WING	10	10	[0, 0, 0]	n/a	FR1	1	R1001P
1085.332	1.6	649998	WORD	n/a	wordpools/wordpool_EN.txt	CHIEF	11	10	[0, 0, 0]	n/a	FR1	1	R1001P
1087.798	1.6	651231	WORD	n/a	wordpools/wordpool_EN.txt	PLANT	12	10	[0, 0, 0]	n/a	FR1	1	R1001P
1089.399	0.001	652032	DISTRACT_START	n/a	n/a	n/a	-999	10	[0, 0, 0]	n/a	FR1	1	R1001P
1089.4	0.016	652032	START	n/a	n/a	n/a	-999	10	[-999, -999, -999]	n/a	FR1	1	R1001P
1089.416	11.734	652040	PROB	11.702	n/a	n/a	-999	10	[2, 3, 7]	12.0	FR1	1	R1001P
1101.15	2.168	657907	PROB	2.137	n/a	n/a	-999	10	[2, 5, 5]	12.0	FR1	1	R1001P
1103.318	8.959	658991	PROB	8.959	n/a	n/a	-999	10	[9, 8, 6]	23.0	FR1	1	R1001P
1112.277	0.026	663470	STOP	n/a	n/a	n/a	-999	10	[-999, -999, -999]	n/a	FR1	1	R1001P
1112.303	1.201	663483	DISTRACT_END	n/a	n/a	n/a	-999	10	[0, 0, 0]	n/a	FR1	1	R1001P
1113.504	2.781	664084	REC_START	n/a	n/a	n/a	-999	10	[0, 0, 0]	n/a	FR1	1	R1001P
1116.285	2.343	665474	REC_WORD	2.781	n/a	MAN	-999	10	[0, 0, 0]	n/a	FR1	1	R1001P
1118.628	0.932	666645	REC_WORD	5.124	n/a	KEY	-999	10	[0, 0, 0]	n/a	FR1	1	R1001P
1119.56	23.955	667111	REC_WORD	6.056	n/a	LEAP	-999	10	[0, 0, 0]	n/a	FR1	1	R1001P
1143.515	2.26	679088	REC_END	n/a	n/a	n/a	-999	10	[0, 0, 0]	n/a	FR1	1	R1001P
1145.775	10.0	680218	COUNTDOWN_START	n/a	n/a	n/a	-999	11	[0, 0, 0]	n/a	FR1	1	R1001P
1145.776	10.427	680219	TRIAL	n/a	n/a	n/a	-999	11	[0, 0, 0]	n/a	FR1	1	R1001P
1156.203	0.008	685432	COUNTDOWN_END	n/a	n/a	n/a	-999	11	[0, 0, 0]	n/a	FR1	1	R1001P
1156.211	1.6	685436	ORIENT	n/a	n/a	n/a	-999	11	[0, 0, 0]	n/a	FR1	1	R1001P
1158.711	1.6	686686	WORD	n/a	wordpools/wordpool_EN.txt	BALL	1	11	[0, 0, 0]	n/a	FR1	1	R1001P
1161.313	1.6	687987	WORD	n/a	wordpools/wordpool_EN.txt	GLOVE	2	11	[0, 0, 0]	n/a	FR1	1	R1001P
1163.779	1.6	689220	WORD	n/a	wordpools/wordpool_EN.txt	DRUM	3	11	[0, 0, 0]	n/a	FR1	1	R1001P
1166.38	1.6	690520	WORD	n/a	wordpools/wordpool_EN.txt	PALM	4	11	[0, 0, 0]	n/a	FR1	1	R1001P
1168.996	1.6	691828	WORD	n/a	wordpools/wordpool_EN.txt	PLATE	5	11	[0, 0, 0]	n/a	FR1	1	R1001P
1171.598	1.6	693129	WORD	n/a	wordpools/wordpool_EN.txt	PRINCE	6	11	[0, 0, 0]	n/a	FR1	1	R1001P
1174.047	1.6	694353	WORD	n/a	wordpools/wordpool_EN.txt	CHAIR	7	11	[0, 0, 0]	n/a	FR1	1	R1001P
1176.648	1.6	695654	WORD	n/a	wordpools/wordpool_EN.txt	NET	8	11	[0, 0, 0]	n/a	FR1	1	R1001P
1179.132	1.6	696896	WORD	n/a	wordpools/wordpool_EN.txt	TREE	9	11	[0, 0, 0]	n/a	FR1	1	R1001P
1181.55	1.6	698105	WORD	n/a	wordpools/wordpool_EN.txt	VASE	10	11	[0, 0, 0]	n/a	FR1	1	R1001P
1183.983	1.6	699321	WORD	n/a	wordpools/wordpool_EN.txt	SHARK	11	11	[0, 0, 0]	n/a	FR1	1	R1001P
1186.384	1.6	700522	WORD	n/a	wordpools/wordpool_EN.txt	COIN	12	11	[0, 0, 0]	n/a	FR1	1	R1001P
1188.0	0.001	701330	DISTRACT_START	n/a	n/a	n/a	-999	11	[0, 0, 0]	n/a	FR1	1	R1001P
1188.001	0.016	701330	START	n/a	n/a	n/a	-999	11	[-999, -999, -999]	n/a	FR1	1	R1001P
1188.017	33.51	701338	PROB	33.51	n/a	n/a	-999	11	[6, 9, 8]	23.0	FR1	1	R1001P
1221.527	0.014	718092	STOP	n/a	n/a	n/a	-999	11	[-999, -999, -999]	n/a	FR1	1	R1001P
1221.541	1.15	718099	DISTRACT_END	n/a	n/a	n/a	-999	11	[0, 0, 0]	n/a	FR1	1	R1001P
1222.691	2.487	718674	REC_START	n/a	n/a	n/a	-999	11	[0, 0, 0]	n/a	FR1	1	R1001P
1225.178	1.555	719917	REC_WORD	2.487	n/a	BALL	-999	11	[0, 0, 0]	n/a	FR1	1	R1001P
1226.733	9.063	720695	REC_WORD	4.042	n/a	GLOVE	-999	11	[0, 0, 0]	n/a	FR1	1	R1001P
1235.796	4.975	725226	REC_WORD	13.105	n/a	TREE	-999	11	[0, 0, 0]	n/a	FR1	1	R1001P
1240.771	11.93	727714	REC_WORD	18.08	n/a	SHARK	-999	11	[0, 0, 0]	n/a	FR1	1	R1001P
1252.701	2.545	733678	REC_END	n/a	n/a	n/a	-999	11	[0, 0, 0]	n/a	FR1	1	R1001P
1255.246	10.0	734951	COUNTDOWN_START	n/a	n/a	n/a	-999	12	[0, 0, 0]	n/a	FR1	1	R1001P
1255.246	10.428	734951	TRIAL	n/a	n/a	n/a	-999	12	[0, 0, 0]	n/a	FR1	1	R1001P
1265.674	0.007	740164	COUNTDOWN_END	n/a	n/a	n/a	-999	12	[0, 0, 0]	n/a	FR1	1	R1001P
1265.681	1.6	740168	ORIENT	n/a	n/a	n/a	-999	12	[0, 0, 0]	n/a	FR1	1	R1001P
1268.165	1.6	741410	WORD	n/a	wordpools/wordpool_EN.txt	RUG	1	12	[0, 0, 0]	n/a	FR1	1	R1001P
1270.766	1.6	742710	WORD	n/a	wordpools/wordpool_EN.txt	YARD	2	12	[0, 0, 0]	n/a	FR1	1	R1001P
1273.233	1.6	743944	WORD	n/a	wordpools/wordpool_EN.txt	STOVE	3	12	[0, 0, 0]	n/a	FR1	1	R1001P
1275.716	1.6	745185	WORD	n/a	wordpools/wordpool_EN.txt	LOCK	4	12	[0, 0, 0]	n/a	FR1	1	R1001P
1278.117	1.6	746386	WORD	n/a	wordpools/wordpool_EN.txt	FACE	5	12	[0, 0, 0]	n/a	FR1	1	R1001P
1280.667	1.6	747660	WORD	n/a	wordpools/wordpool_EN.txt	BOARD	6	12	[0, 0, 0]	n/a	FR1	1	R1001P
1283.185	1.6	748919	WORD	n/a	wordpools/wordpool_EN.txt	CAGE	7	12	[0, 0, 0]	n/a	FR1	1	R1001P
1285.668	1.6	750161	WORD	n/a	wordpools/wordpool_EN.txt	HORN	8	12	[0, 0, 0]	n/a	FR1	1	R1001P
1288.252	1.6	751453	WORD	n/a	wordpools/wordpool_EN.txt	DRESS	9	12	[0, 0, 0]	n/a	FR1	1	R1001P
1290.669	1.6	752661	WORD	n/a	wordpools/wordpool_EN.txt	DOCK	10	12	[0, 0, 0]	n/a	FR1	1	R1001P
1293.17	1.6	753912	WORD	n/a	wordpools/wordpool_EN.txt	WOOD	11	12	[0, 0, 0]	n/a	FR1	1	R1001P
1295.77	1.6	755212	WORD	n/a	wordpools/wordpool_EN.txt	TOY	12	12	[0, 0, 0]	n/a	FR1	1	R1001P
1297.371	0.001	756012	DISTRACT_START	n/a	n/a	n/a	-999	12	[0, 0, 0]	n/a	FR1	1	R1001P
1297.372	0.016	756013	START	n/a	n/a	n/a	-999	12	[-999, -999, -999]	n/a	FR1	1	R1001P
1297.388	41.971	756021	PROB	41.971	n/a	n/a	-999	12	[1, 5, 4]	10.0	FR1	1	R1001P
1339.359	0.004	777005	STOP	n/a	n/a	n/a	-999	12	[-999, -999, -999]	n/a	FR1	1	R1001P
1339.363	1.217	777007	DISTRACT_END	n/a	n/a	n/a	-999	12	[0, 0, 0]	n/a	FR1	1	R1001P
1340.58	3.262	777615	REC_START	n/a	n/a	n/a	-999	12	[0, 0, 0]	n/a	FR1	1	R1001P
1343.842	9.23	779246	REC_WORD	3.262	n/a	DRESS	-999	12	[0, 0, 0]	n/a	FR1	1	R1001P
1353.072	1.175	783861	REC_WORD	12.492	n/a	TOY	-999	12	[0, 0, 0]	n/a	FR1	1	R1001P
1354.247	13.079	784448	REC_WORD	13.667	n/a	LOCK	-999	12	[0, 0, 0]	n/a	FR1	1	R1001P
1367.326	1.013	790988	REC_WORD	26.746	n/a	TOY	-999	12	[0, 0, 0]	n/a	FR1	1	R1001P
1368.339	2.252	791494	REC_WORD	27.759	n/a	YARD	-999	12	[0, 0, 0]	n/a	FR1	1	R1001P
1370.591	2.077	792620	REC_END	n/a	n/a	n/a	-999	12	[0, 0, 0]	n/a	FR1	1	R1001P
1372.668	0.0	793658	TRIAL	n/a	n/a	n/a	-999	13	[0, 0, 0]	n/a	FR1	1	R1001P
1372.668	10.0	793658	COUNTDOWN_START	n/a	n/a	n/a	-999	13	[0, 0, 0]	n/a	FR1	1	R1001P
1383.096	0.007	798872	COUNTDOWN_END	n/a	n/a	n/a	-999	13	[0, 0, 0]	n/a	FR1	1	R1001P
1383.103	1.6	798876	ORIENT	n/a	n/a	n/a	-999	13	[0, 0, 0]	n/a	FR1	1	R1001P
1385.687	1.6	800168	WORD	n/a	wordpools/wordpool_EN.txt	BLOOM	1	13	[0, 0, 0]	n/a	FR1	1	R1001P
1388.288	1.6	801468	WORD	n/a	wordpools/wordpool_EN.txt	BROOM	2	13	[0, 0, 0]	n/a	FR1	1	R1001P
1390.788	1.6	802718	WORD	n/a	wordpools/wordpool_EN.txt	BRANCH	3	13	[0, 0, 0]	n/a	FR1	1	R1001P
1393.306	1.6	803977	WORD	n/a	wordpools/wordpool_EN.txt	ROAD	4	13	[0, 0, 0]	n/a	FR1	1	R1001P
1395.739	1.6	805193	WORD	n/a	wordpools/wordpool_EN.txt	OAK	5	13	[0, 0, 0]	n/a	FR1	1	R1001P
1398.307	1.6	806477	WORD	n/a	wordpools/wordpool_EN.txt	GRASS	6	13	[0, 0, 0]	n/a	FR1	1	R1001P
1400.807	1.6	807727	WORD	n/a	wordpools/wordpool_EN.txt	VINE	7	13	[0, 0, 0]	n/a	FR1	1	R1001P
1403.257	1.6	808952	WORD	n/a	wordpools/wordpool_EN.txt	STRAW	8	13	[0, 0, 0]	n/a	FR1	1	R1001P
1405.858	1.6	810253	WORD	n/a	wordpools/wordpool_EN.txt	ROPE	9	13	[0, 0, 0]	n/a	FR1	1	R1001P
1408.275	1.6	811461	WORD	n/a	wordpools/wordpool_EN.txt	PANTS	10	13	[0, 0, 0]	n/a	FR1	1	R1001P
1410.759	1.6	812703	WORD	n/a	wordpools/wordpool_EN.txt	PEACH	11	13	[0, 0, 0]	n/a	FR1	1	R1001P
1413.192	1.6	813919	WORD	n/a	wordpools/wordpool_EN.txt	WEED	12	13	[0, 0, 0]	n/a	FR1	1	R1001P
1414.809	0.001	814728	DISTRACT_START	n/a	n/a	n/a	-999	13	[0, 0, 0]	n/a	FR1	1	R1001P
1414.81	0.016	814728	START	n/a	n/a	n/a	-999	13	[-999, -999, -999]	n/a	FR1	1	R1001P
1414.826	26.461	814736	PROB	26.461	n/a	n/a	-999	13	[2, 9, 4]	15.0	FR1	1	R1001P
1441.287	0.011	827966	STOP	n/a	n/a	n/a	-999	13	[-999, -999, -999]	n/a	FR1	1	R1001P
1441.298	1.118	827972	DISTRACT_END	n/a	n/a	n/a	-999	13	[0, 0, 0]	n/a	FR1	1	R1001P
1442.416	1.602	828531	REC_START	n/a	n/a	n/a	-999	13	[0, 0, 0]	n/a	FR1	1	R1001P
1444.018	1.026	829332	REC_WORD	1.602	n/a	ROPE	-999	13	[0, 0, 0]	n/a	FR1	1	R1001P
1445.044	1.962	829844	REC_WORD	2.628	n/a	STRAW	-999	13	[0, 0, 0]	n/a	FR1	1	R1001P
1447.006	2.177	830825	REC_WORD	4.59	n/a	STRAND	-999	13	[0, 0, 0]	n/a	FR1	1	R1001P
1449.183	23.243	831914	REC_WORD	6.767	n/a	PEACH	-999	13	[0, 0, 0]	n/a	FR1	1	R1001P
1472.426	3.079	843535	REC_END	n/a	n/a	n/a	-999	13	[0, 0, 0]	n/a	FR1	1	R1001P
1475.505	10.0	845074	COUNTDOWN_START	n/a	n/a	n/a	-999	14	[0, 0, 0]	n/a	FR1	1	R1001P
1475.505	10.428	845074	TRIAL	n/a	n/a	n/a	-999	14	[0, 0, 0]	n/a	FR1	1	R1001P
1485.933	0.006	850288	COUNTDOWN_END	n/a	n/a	n/a	-999	14	[0, 0, 0]	n/a	FR1	1	R1001P
1485.939	1.6	850291	ORIENT	n/a	n/a	n/a	-999	14	[0, 0, 0]	n/a	FR1	1	R1001P
1488.458	1.6	851550	WORD	n/a	wordpools/wordpool_EN.txt	FOOT	1	14	[0, 0, 0]	n/a	FR1	1	R1001P
1490.957	1.6	852800	WORD	n/a	wordpools/wordpool_EN.txt	HORSE	2	14	[0, 0, 0]	n/a	FR1	1	R1001P
1493.375	1.6	854009	WORD	n/a	wordpools/wordpool_EN.txt	CALF	3	14	[0, 0, 0]	n/a	FR1	1	R1001P
1495.858	1.6	855250	WORD	n/a	wordpools/wordpool_EN.txt	BAG	4	14	[0, 0, 0]	n/a	FR1	1	R1001P
1498.326	1.6	856484	WORD	n/a	wordpools/wordpool_EN.txt	NOSE	5	14	[0, 0, 0]	n/a	FR1	1	R1001P
1500.792	1.6	857717	WORD	n/a	wordpools/wordpool_EN.txt	DITCH	6	14	[0, 0, 0]	n/a	FR1	1	R1001P
1503.193	1.6	858917	WORD	n/a	wordpools/wordpool_EN.txt	WAND	7	14	[0, 0, 0]	n/a	FR1	1	R1001P
1505.727	1.6	860184	WORD	n/a	wordpools/wordpool_EN.txt	SHIRT	8	14	[0, 0, 0]	n/a	FR1	1	R1001P
1508.11	1.6	861376	WORD	n/a	wordpools/wordpool_EN.txt	MOUTH	9	14	[0, 0, 0]	n/a	FR1	1	R1001P
1510.644	1.6	862643	WORD	n/a	wordpools/wordpool_EN.txt	CHALK	10	14	[0, 0, 0]	n/a	FR1	1	R1001P
1513.128	1.6	863885	WORD	n/a	wordpools/wordpool_EN.txt	SINK	11	14	[0, 0, 0]	n/a	FR1	1	R1001P
1515.513	1.6	865077	WORD	n/a	wordpools/wordpool_EN.txt	MUD	12	14	[0, 0, 0]	n/a	FR1	1	R1001P
1517.129	0.001	865885	DISTRACT_START	n/a	n/a	n/a	-999	14	[0, 0, 0]	n/a	FR1	1	R1001P
1517.13	0.015	865886	START	n/a	n/a	n/a	-999	14	[-999, -999, -999]	n/a	FR1	1	R1001P
1517.145	33.069	865893	PROB	33.069	n/a	n/a	-999	14	[5, 5, 8]	18.0	FR1	1	R1001P
1550.214	0.004	882427	STOP	n/a	n/a	n/a	-999	14	[-999, -999, -999]	n/a	FR1	1	R1001P
1550.218	1.186	882429	DISTRACT_END	n/a	n/a	n/a	-999	14	[0, 0, 0]	n/a	FR1	1	R1001P
1551.404	3.442	883022	REC_START	n/a	n/a	n/a	-999	14	[0, 0, 0]	n/a	FR1	1	R1001P
1554.846	1.25	884742	REC_WORD	3.442	n/a	FOOT	-999	14	[0, 0, 0]	n/a	FR1	1	R1001P
1556.096	1.958	885367	REC_WORD	4.692	n/a	CALF	-999	14	[0, 0, 0]	n/a	FR1	1	R1001P
1558.054	2.009	886346	REC_WORD	6.65	n/a	CHALK	-999	14	[0, 0, 0]	n/a	FR1	1	R1001P
1560.063	18.208	887351	REC_WORD	8.659	n/a	HORSE	-999	14	[0, 0, 0]	n/a	FR1	1	R1001P
1578.271	3.143	896454	REC_WORD	26.867	n/a	CHIN	-999	14	[0, 0, 0]	n/a	FR1	1	R1001P
1581.414	2.045	898026	REC_END	n/a	n/a	n/a	-999	14	[0, 0, 0]	n/a	FR1	1	R1001P
1583.459	0.0	899048	TRIAL	n/a	n/a	n/a	-999	15	[0, 0, 0]	n/a	FR1	1	R1001P
1583.459	10.0	899048	COUNTDOWN_START	n/a	n/a	n/a	-999	15	[0, 0, 0]	n/a	FR1	1	R1001P
1593.887	0.006	904262	COUNTDOWN_END	n/a	n/a	n/a	-999	15	[0, 0, 0]	n/a	FR1	1	R1001P
1593.893	1.6	904265	ORIENT	n/a	n/a	n/a	-999	15	[0, 0, 0]	n/a	FR1	1	R1001P
1596.277	1.6	905457	WORD	n/a	wordpools/wordpool_EN.txt	CAT	1	15	[0, 0, 0]	n/a	FR1	1	R1001P
1598.877	1.6	906757	WORD	n/a	wordpools/wordpool_EN.txt	TANK	2	15	[0, 0, 0]	n/a	FR1	1	R1001P
1601.261	1.6	907949	WORD	n/a	wordpools/wordpool_EN.txt	BOAT	3	15	[0, 0, 0]	n/a	FR1	1	R1001P
1603.712	1.6	909174	WORD	n/a	wordpools/wordpool_EN.txt	SPARK	4	15	[0, 0, 0]	n/a	FR1	1	R1001P
1606.145	1.6	910391	WORD	n/a	wordpools/wordpool_EN.txt	WORM	5	15	[0, 0, 0]	n/a	FR1	1	R1001P
1608.663	1.6	911650	WORD	n/a	wordpools/wordpool_EN.txt	HOSE	6	15	[0, 0, 0]	n/a	FR1	1	R1001P
1611.23	1.6	912933	WORD	n/a	wordpools/wordpool_EN.txt	TRASH	7	15	[0, 0, 0]	n/a	FR1	1	R1001P
1613.614	1.6	914125	WORD	n/a	wordpools/wordpool_EN.txt	KITE	8	15	[0, 0, 0]	n/a	FR1	1	R1001P
1616.047	1.6	915341	WORD	n/a	wordpools/wordpool_EN.txt	FISH	9	15	[0, 0, 0]	n/a	FR1	1	R1001P
1618.482	1.6	916559	WORD	n/a	wordpools/wordpool_EN.txt	WHEEL	10	15	[0, 0, 0]	n/a	FR1	1	R1001P
1620.898	1.6	917767	WORD	n/a	wordpools/wordpool_EN.txt	DOG	11	15	[0, 0, 0]	n/a	FR1	1	R1001P
1623.466	1.6	919051	WORD	n/a	wordpools/wordpool_EN.txt	LAND	12	15	[0, 0, 0]	n/a	FR1	1	R1001P
1625.082	0.001	919859	DISTRACT_START	n/a	n/a	n/a	-999	15	[0, 0, 0]	n/a	FR1	1	R1001P
1625.083	0.016	919859	START	n/a	n/a	n/a	-999	15	[-999, -999, -999]	n/a	FR1	1	R1001P
1625.099	30.091	919867	PROB	30.091	n/a	n/a	-999	15	[9, 2, 7]	18.0	FR1	1	R1001P
1655.19	0.015	934912	STOP	n/a	n/a	n/a	-999	15	[-999, -999, -999]	n/a	FR1	1	R1001P
1655.205	1.168	934919	DISTRACT_END	n/a	n/a	n/a	-999	15	[0, 0, 0]	n/a	FR1	1	R1001P
1656.373	1.624	935503	REC_START	n/a	n/a	n/a	-999	15	[0, 0, 0]	n/a	FR1	1	R1001P
1657.997	1.328	936315	REC_WORD	1.624	n/a	CAT	-999	15	[0, 0, 0]	n/a	FR1	1	R1001P
1659.325	0.932	936979	REC_WORD	2.952	n/a	HORSE	-999	15	[0, 0, 0]	n/a	FR1	1	R1001P
1660.257	1.572	937445	REC_WORD	3.884	n/a	TRAIL	-999	15	[0, 0, 0]	n/a	FR1	1	R1001P
1661.829	1.499	938231	REC_WORD	5.456	n/a	DOG	-999	15	[0, 0, 0]	n/a	FR1	1	R1001P
1663.328	23.055	938981	REC_WORD	6.955	n/a	FISH	-999	15	[0, 0, 0]	n/a	FR1	1	R1001P
1686.383	3.278	950507	REC_END	n/a	n/a	n/a	-999	15	[0, 0, 0]	n/a	FR1	1	R1001P
1689.661	0.0	952146	TRIAL	n/a	n/a	n/a	-999	16	[0, 0, 0]	n/a	FR1	1	R1001P
1689.661	10.0	952146	COUNTDOWN_START	n/a	n/a	n/a	-999	16	[0, 0, 0]	n/a	FR1	1	R1001P
1700.089	0.007	957360	COUNTDOWN_END	n/a	n/a	n/a	-999	16	[0, 0, 0]	n/a	FR1	1	R1001P
1700.096	1.6	957364	ORIENT	n/a	n/a	n/a	-999	16	[0, 0, 0]	n/a	FR1	1	R1001P
1702.548	1.6	958589	WORD	n/a	wordpools/wordpool_EN.txt	BADGE	1	16	[0, 0, 0]	n/a	FR1	1	R1001P
1705.164	1.6	959897	WORD	n/a	wordpools/wordpool_EN.txt	JUDGE	2	16	[0, 0, 0]	n/a	FR1	1	R1001P
1707.764	1.6	961197	WORD	n/a	wordpools/wordpool_EN.txt	BOOK	3	16	[0, 0, 0]	n/a	FR1	1	R1001P
1710.299	1.6	962465	WORD	n/a	wordpools/wordpool_EN.txt	PIG	4	16	[0, 0, 0]	n/a	FR1	1	R1001P
1712.782	1.6	963706	WORD	n/a	wordpools/wordpool_EN.txt	PLANE	5	16	[0, 0, 0]	n/a	FR1	1	R1001P
1715.384	1.6	965007	WORD	n/a	wordpools/wordpool_EN.txt	SHEET	6	16	[0, 0, 0]	n/a	FR1	1	R1001P
1717.983	1.6	966307	WORD	n/a	wordpools/wordpool_EN.txt	CAR	7	16	[0, 0, 0]	n/a	FR1	1	R1001P
1720.518	1.6	967574	WORD	n/a	wordpools/wordpool_EN.txt	SMOKE	8	16	[0, 0, 0]	n/a	FR1	1	R1001P
1723.084	1.6	968857	WORD	n/a	wordpools/wordpool_EN.txt	SHEEP	9	16	[0, 0, 0]	n/a	FR1	1	R1001P
1725.668	1.6	970149	WORD	n/a	wordpools/wordpool_EN.txt	WAVE	10	16	[0, 0, 0]	n/a	FR1	1	R1001P
1728.102	1.6	971366	WORD	n/a	wordpools/wordpool_EN.txt	ARK	11	16	[0, 0, 0]	n/a	FR1	1	R1001P
1730.686	1.6	972658	WORD	n/a	wordpools/wordpool_EN.txt	JET	12	16	[0, 0, 0]	n/a	FR1	1	R1001P
1732.304	0.001	973467	DISTRACT_START	n/a	n/a	n/a	-999	16	[0, 0, 0]	n/a	FR1	1	R1001P
1732.305	0.015	973467	START	n/a	n/a	n/a	-999	16	[-999, -999, -999]	n/a	FR1	1	R1001P
1732.32	51.43	973475	PROB	51.43	n/a	n/a	-999	16	[4, 4, 5]	13.0	FR1	1	R1001P
1783.75	0.012	999188	STOP	n/a	n/a	n/a	-999	16	[-999, -999, -999]	n/a	FR1	1	R1001P
1783.762	1.218	999194	DISTRACT_END	n/a	n/a	n/a	-999	16	[0, 0, 0]	n/a	FR1	1	R1001P
1784.98	1.507	999803	REC_START	n/a	n/a	n/a	-999	16	[0, 0, 0]	n/a	FR1	1	R1001P
1786.487	0.822	1000557	REC_WORD	1.507	n/a	JACK	-999	16	[0, 0, 0]	n/a	FR1	1	R1001P
1787.309	1.972	1000968	REC_WORD	2.329	n/a	SHEET	-999	16	[0, 0, 0]	n/a	FR1	1	R1001P
1789.281	6.582	1001954	REC_WORD	4.301	n/a	SMOKE	-999	16	[0, 0, 0]	n/a	FR1	1	R1001P
1795.863	19.127	1005244	REC_WORD	10.883	n/a	SAND	-999	16	[0, 0, 0]	n/a	FR1	1	R1001P
1814.99	2.879	1014807	REC_END	n/a	n/a	n/a	-999	16	[0, 0, 0]	n/a	FR1	1	R1001P
1817.869	0.0	1016247	TRIAL	n/a	n/a	n/a	-999	17	[0, 0, 0]	n/a	FR1	1	R1001P
1817.869	10.0	1016247	COUNTDOWN_START	n/a	n/a	n/a	-999	17	[0, 0, 0]	n/a	FR1	1	R1001P
1828.297	0.008	1021460	COUNTDOWN_END	n/a	n/a	n/a	-999	17	[0, 0, 0]	n/a	FR1	1	R1001P
1828.305	1.6	1021464	ORIENT	n/a	n/a	n/a	-999	17	[0, 0, 0]	n/a	FR1	1	R1001P
1830.771	1.6	1022697	WORD	n/a	wordpools/wordpool_EN.txt	BRICK	1	17	[0, 0, 0]	n/a	FR1	1	R1001P
1833.205	1.6	1023914	WORD	n/a	wordpools/wordpool_EN.txt	POLE	2	17	[0, 0, 0]	n/a	FR1	1	R1001P
1835.839	1.6	1025231	WORD	n/a	wordpools/wordpool_EN.txt	JAIL	3	17	[0, 0, 0]	n/a	FR1	1	R1001P
1838.373	1.6	1026498	WORD	n/a	wordpools/wordpool_EN.txt	MAP	4	17	[0, 0, 0]	n/a	FR1	1	R1001P
1840.773	1.6	1027698	WORD	n/a	wordpools/wordpool_EN.txt	MOON	5	17	[0, 0, 0]	n/a	FR1	1	R1001P
1843.341	1.6	1028982	WORD	n/a	wordpools/wordpool_EN.txt	CORD	6	17	[0, 0, 0]	n/a	FR1	1	R1001P
1845.874	1.6	1030249	WORD	n/a	wordpools/wordpool_EN.txt	BOMB	7	17	[0, 0, 0]	n/a	FR1	1	R1001P
1848.274	1.6	1031448	WORD	n/a	wordpools/wordpool_EN.txt	OAR	8	17	[0, 0, 0]	n/a	FR1	1	R1001P
1850.691	1.6	1032657	WORD	n/a	wordpools/wordpool_EN.txt	STAR	9	17	[0, 0, 0]	n/a	FR1	1	R1001P
1853.175	1.6	1033899	WORD	n/a	wordpools/wordpool_EN.txt	STEM	10	17	[0, 0, 0]	n/a	FR1	1	R1001P
1855.742	1.6	1035182	WORD	n/a	wordpools/wordpool_EN.txt	BAT	11	17	[0, 0, 0]	n/a	FR1	1	R1001P
1858.294	1.6	1036458	WORD	n/a	wordpools/wordpool_EN.txt	TOOTH	12	17	[0, 0, 0]	n/a	FR1	1	R1001P
1859.91	0.001	1037266	DISTRACT_START	n/a	n/a	n/a	-999	17	[0, 0, 0]	n/a	FR1	1	R1001P
1859.911	0.016	1037267	START	n/a	n/a	n/a	-999	17	[-999, -999, -999]	n/a	FR1	1	R1001P
1859.927	28.624	1037275	PROB	28.624	n/a	n/a	-999	17	[2, 7, 7]	16.0	FR1	1	R1001P
1888.551	0.015	1051586	STOP	n/a	n/a	n/a	-999	17	[-999, -999, -999]	n/a	FR1	1	R1001P
1888.566	1.15	1051593	DISTRACT_END	n/a	n/a	n/a	-999	17	[0, 0, 0]	n/a	FR1	1	R1001P
1889.716	1.276	1052168	REC_START	n/a	n/a	n/a	-999	17	[0, 0, 0]	n/a	FR1	1	R1001P
1890.992	2.146	1052806	REC_WORD	1.276	n/a	STAR	-999	17	[0, 0, 0]	n/a	FR1	1	R1001P
1893.138	1.572	1053879	REC_WORD	3.422	n/a	TOOTH	-999	17	[0, 0, 0]	n/a	FR1	1	R1001P
1894.71	25.014	1054665	REC_WORD	4.994	n/a	TEAM	-999	17	[0, 0, 0]	n/a	FR1	1	R1001P
1919.724	1.798	1067171	REC_END	n/a	n/a	n/a	-999	17	[0, 0, 0]	n/a	FR1	1	R1001P
1921.522	10.0	1068070	COUNTDOWN_START	n/a	n/a	n/a	-999	18	[0, 0, 0]	n/a	FR1	1	R1001P
1921.523	10.427	1068071	TRIAL	n/a	n/a	n/a	-999	18	[0, 0, 0]	n/a	FR1	1	R1001P
1931.95	0.007	1073284	COUNTDOWN_END	n/a	n/a	n/a	-999	18	[0, 0, 0]	n/a	FR1	1	R1001P
1931.957	1.6	1073288	ORIENT	n/a	n/a	n/a	-999	18	[0, 0, 0]	n/a	FR1	1	R1001P
1934.525	1.6	1074572	WORD	n/a	wordpools/wordpool_EN.txt	HILL	1	18	[0, 0, 0]	n/a	FR1	1	R1001P
1937.024	1.6	1075821	WORD	n/a	wordpools/wordpool_EN.txt	CLOUD	2	18	[0, 0, 0]	n/a	FR1	1	R1001P
1939.493	1.6	1077055	WORD	n/a	wordpools/wordpool_EN.txt	SHOE	3	18	[0, 0, 0]	n/a	FR1	1	R1001P
1941.925	1.6	1078271	WORD	n/a	wordpools/wordpool_EN.txt	BOX	4	18	[0, 0, 0]	n/a	FR1	1	R1001P
1944.443	1.6	1079530	WORD	n/a	wordpools/wordpool_EN.txt	RICE	5	18	[0, 0, 0]	n/a	FR1	1	R1001P
1946.943	1.6	1080780	WORD	n/a	wordpools/wordpool_EN.txt	TOAST	6	18	[0, 0, 0]	n/a	FR1	1	R1001P
1949.461	1.6	1082039	WORD	n/a	wordpools/wordpool_EN.txt	RAIN	7	18	[0, 0, 0]	n/a	FR1	1	R1001P
1951.927	1.6	1083272	WORD	n/a	wordpools/wordpool_EN.txt	ELF	8	18	[0, 0, 0]	n/a	FR1	1	R1001P
1954.529	1.6	1084573	WORD	n/a	wordpools/wordpool_EN.txt	FILM	9	18	[0, 0, 0]	n/a	FR1	1	R1001P
1957.128	1.6	1085872	WORD	n/a	wordpools/wordpool_EN.txt	CHIN	10	18	[0, 0, 0]	n/a	FR1	1	R1001P
1959.745	1.6	1087181	WORD	n/a	wordpools/wordpool_EN.txt	SWAMP	11	18	[0, 0, 0]	n/a	FR1	1	R1001P
1962.196	1.6	1088406	WORD	n/a	wordpools/wordpool_EN.txt	SALT	12	18	[0, 0, 0]	n/a	FR1	1	R1001P
1963.813	0.001	1089215	DISTRACT_START	n/a	n/a	n/a	-999	18	[0, 0, 0]	n/a	FR1	1	R1001P
1963.814	0.015	1089215	START	n/a	n/a	n/a	-999	18	[-999, -999, -999]	n/a	FR1	1	R1001P
1963.829	32.281	1089223	PROB	32.281	n/a	n/a	-999	18	[8, 3, 1]	12.0	FR1	1	R1001P
1996.11	0.009	1105362	STOP	n/a	n/a	n/a	-999	18	[-999, -999, -999]	n/a	FR1	1	R1001P
1996.119	1.168	1105367	DISTRACT_END	n/a	n/a	n/a	-999	18	[0, 0, 0]	n/a	FR1	1	R1001P
1997.287	2.033	1105951	REC_START	n/a	n/a	n/a	-999	18	[0, 0, 0]	n/a	FR1	1	R1001P
1999.32	1.973	1106967	REC_WORD	2.033	n/a	SALT	-999	18	[0, 0, 0]	n/a	FR1	1	R1001P
2001.293	2.015	1107954	REC_WORD	4.006	n/a	RAIN	-999	18	[0, 0, 0]	n/a	FR1	1	R1001P
2003.308	24.043	1108961	REC_WORD	6.021	n/a	CHIN	-999	18	[0, 0, 0]	n/a	FR1	1	R1001P
2027.351	4.475	1120982	REC_END	n/a	n/a	n/a	-999	18	[0, 0, 0]	n/a	FR1	1	R1001P
2031.826	0.0	1123219	TRIAL	n/a	n/a	n/a	-999	19	[0, 0, 0]	n/a	FR1	1	R1001P
2031.826	10.0	1123219	COUNTDOWN_START	n/a	n/a	n/a	-999	19	[0, 0, 0]	n/a	FR1	1	R1001P
2042.254	0.007	1128433	COUNTDOWN_END	n/a	n/a	n/a	-999	19	[0, 0, 0]	n/a	FR1	1	R1001P
2042.261	1.6	1128437	ORIENT	n/a	n/a	n/a	-999	19	[0, 0, 0]	n/a	FR1	1	R1001P
2044.745	1.6	1129679	WORD	n/a	wordpools/wordpool_EN.txt	STEAM	1	19	[0, 0, 0]	n/a	FR1	1	R1001P
2047.245	1.6	1130929	WORD	n/a	wordpools/wordpool_EN.txt	SIGN	2	19	[0, 0, 0]	n/a	FR1	1	R1001P
2049.646	1.6	1132129	WORD	n/a	wordpools/wordpool_EN.txt	WHALE	3	19	[0, 0, 0]	n/a	FR1	1	R1001P
2052.196	1.6	1133404	WORD	n/a	wordpools/wordpool_EN.txt	SHIELD	4	19	[0, 0, 0]	n/a	FR1	1	R1001P
2054.747	1.6	1134679	WORD	n/a	wordpools/wordpool_EN.txt	ICE	5	19	[0, 0, 0]	n/a	FR1	1	R1001P
2057.298	1.6	1135955	WORD	n/a	wordpools/wordpool_EN.txt	CROW	6	19	[0, 0, 0]	n/a	FR1	1	R1001P
2059.931	1.6	1137271	WORD	n/a	wordpools/wordpool_EN.txt	AXE	7	19	[0, 0, 0]	n/a	FR1	1	R1001P
2062.416	1.6	1138514	WORD	n/a	wordpools/wordpool_EN.txt	JEEP	8	19	[0, 0, 0]	n/a	FR1	1	R1001P
2064.848	1.6	1139730	WORD	n/a	wordpools/wordpool_EN.txt	SPRING	9	19	[0, 0, 0]	n/a	FR1	1	R1001P
2067.433	1.6	1141022	WORD	n/a	wordpools/wordpool_EN.txt	SLEEVE	10	19	[0, 0, 0]	n/a	FR1	1	R1001P
2069.933	1.6	1142272	WORD	n/a	wordpools/wordpool_EN.txt	GEESE	11	19	[0, 0, 0]	n/a	FR1	1	R1001P
2072.368	1.6	1143489	WORD	n/a	wordpools/wordpool_EN.txt	GATE	12	19	[0, 0, 0]	n/a	FR1	1	R1001P
2073.984	0.0	1144297	DISTRACT_START	n/a	n/a	n/a	-999	19	[0, 0, 0]	n/a	FR1	1	R1001P
2073.984	0.016	1144297	START	n/a	n/a	n/a	-999	19	[-999, -999, -999]	n/a	FR1	1	R1001P
2074.0	42.607	1144305	PROB	42.607	n/a	n/a	-999	19	[9, 1, 3]	13.0	FR1	1	R1001P
2116.607	0.018	1165608	STOP	n/a	n/a	n/a	-999	19	[-999, -999, -999]	n/a	FR1	1	R1001P
2116.625	1.051	1165617	DISTRACT_END	n/a	n/a	n/a	-999	19	[0, 0, 0]	n/a	FR1	1	R1001P
2117.676	2.014	1166142	REC_START	n/a	n/a	n/a	-999	19	[0, 0, 0]	n/a	FR1	1	R1001P
2119.69	1.221	1167149	REC_WORD	2.014	n/a	GEESE	-999	19	[0, 0, 0]	n/a	FR1	1	R1001P
2120.911	1.824	1167759	REC_WORD	3.235	n/a	STEAM	-999	19	[0, 0, 0]	n/a	FR1	1	R1001P
2122.735	1.461	1168671	REC_WORD	5.059	n/a	GOAT	-999	19	[0, 0, 0]	n/a	FR1	1	R1001P
2124.196	23.49	1169402	REC_WORD	6.52	n/a	RAIN	-999	19	[0, 0, 0]	n/a	FR1	1	R1001P
2147.686	2.495	1181146	REC_END	n/a	n/a	n/a	-999	19	[0, 0, 0]	n/a	FR1	1	R1001P
2150.181	0.0	1182394	TRIAL	n/a	n/a	n/a	-999	20	[0, 0, 0]	n/a	FR1	1	R1001P
2150.181	10.0	1182394	COUNTDOWN_START	n/a	n/a	n/a	-999	20	[0, 0, 0]	n/a	FR1	1	R1001P
2160.609	0.009	1187607	COUNTDOWN_END	n/a	n/a	n/a	-999	20	[0, 0, 0]	n/a	FR1	1	R1001P
2160.618	1.6	1187612	ORIENT	n/a	n/a	n/a	-999	20	[0, 0, 0]	n/a	FR1	1	R1001P
2163.117	1.6	1188861	WORD	n/a	wordpools/wordpool_EN.txt	HAWK	1	20	[0, 0, 0]	n/a	FR1	1	R1001P
2165.634	1.6	1190120	WORD	n/a	wordpools/wordpool_EN.txt	BEE	2	20	[0, 0, 0]	n/a	FR1	1	R1001P
2168.251	1.6	1191428	WORD	n/a	wordpools/wordpool_EN.txt	SEAT	3	20	[0, 0, 0]	n/a	FR1	1	R1001P
2170.835	1.6	1192720	WORD	n/a	wordpools/wordpool_EN.txt	CORN	4	20	[0, 0, 0]	n/a	FR1	1	R1001P
2173.252	1.6	1193929	WORD	n/a	wordpools/wordpool_EN.txt	COW	5	20	[0, 0, 0]	n/a	FR1	1	R1001P
2175.803	1.6	1195204	WORD	n/a	wordpools/wordpool_EN.txt	BARN	6	20	[0, 0, 0]	n/a	FR1	1	R1001P
2178.337	1.6	1196471	WORD	n/a	wordpools/wordpool_EN.txt	OWL	7	20	[0, 0, 0]	n/a	FR1	1	R1001P
2180.837	1.6	1197721	WORD	n/a	wordpools/wordpool_EN.txt	PET	8	20	[0, 0, 0]	n/a	FR1	1	R1001P
2183.322	1.6	1198963	WORD	n/a	wordpools/wordpool_EN.txt	LAMB	9	20	[0, 0, 0]	n/a	FR1	1	R1001P
2185.888	1.6	1200246	WORD	n/a	wordpools/wordpool_EN.txt	SKY	10	20	[0, 0, 0]	n/a	FR1	1	R1001P
2188.289	1.6	1201447	WORD	n/a	wordpools/wordpool_EN.txt	FLEA	11	20	[0, 0, 0]	n/a	FR1	1	R1001P
2190.789	1.6	1202697	WORD	n/a	wordpools/wordpool_EN.txt	EEL	12	20	[0, 0, 0]	n/a	FR1	1	R1001P
2192.39	0.001	1203497	DISTRACT_START	n/a	n/a	n/a	-999	20	[0, 0, 0]	n/a	FR1	1	R1001P
2192.391	0.016	1203498	START	n/a	n/a	n/a	-999	20	[-999, -999, -999]	n/a	FR1	1	R1001P
2192.407	43.232	1203506	PROB	43.232	n/a	n/a	-999	20	[5, 8, 4]	17.0	FR1	1	R1001P
2235.639	0.008	1225120	STOP	n/a	n/a	n/a	-999	20	[-999, -999, -999]	n/a	FR1	1	R1001P
2235.647	1.185	1225124	DISTRACT_END	n/a	n/a	n/a	-999	20	[0, 0, 0]	n/a	FR1	1	R1001P
2236.832	1.519	1225717	REC_START	n/a	n/a	n/a	-999	20	[0, 0, 0]	n/a	FR1	1	R1001P
2238.351	1.082	1226476	REC_WORD	1.519	n/a	COW	-999	20	[0, 0, 0]	n/a	FR1	1	R1001P
2239.433	1.804	1227017	REC_WORD	2.601	n/a	FARM	-999	20	[0, 0, 0]	n/a	FR1	1	R1001P
2241.237	5.143	1227919	REC_WORD	4.405	n/a	LAMB	-999	20	[0, 0, 0]	n/a	FR1	1	R1001P
2246.38	20.462	1230491	REC_WORD	9.548	n/a	BEEF	-999	20	[0, 0, 0]	n/a	FR1	1	R1001P
2266.842	4.412	1240721	REC_END	n/a	n/a	n/a	-999	20	[0, 0, 0]	n/a	FR1	1	R1001P
2271.254	0.0	1242927	TRIAL	n/a	n/a	n/a	-999	21	[0, 0, 0]	n/a	FR1	1	R1001P
2271.254	10.0	1242927	COUNTDOWN_START	n/a	n/a	n/a	-999	21	[0, 0, 0]	n/a	FR1	1	R1001P
2281.682	0.024	1248141	COUNTDOWN_END	n/a	n/a	n/a	-999	21	[0, 0, 0]	n/a	FR1	1	R1001P
2281.706	1.6	1248153	ORIENT	n/a	n/a	n/a	-999	21	[0, 0, 0]	n/a	FR1	1	R1001P
2284.256	1.6	1249428	WORD	n/a	wordpools/wordpool_EN.txt	SUN	1	21	[0, 0, 0]	n/a	FR1	1	R1001P
2286.857	1.6	1250728	WORD	n/a	wordpools/wordpool_EN.txt	TOAD	2	21	[0, 0, 0]	n/a	FR1	1	R1001P
2289.342	1.6	1251970	WORD	n/a	wordpools/wordpool_EN.txt	SEA	3	21	[0, 0, 0]	n/a	FR1	1	R1001P
2291.774	1.6	1253186	WORD	n/a	wordpools/wordpool_EN.txt	SNOW	4	21	[0, 0, 0]	n/a	FR1	1	R1001P
2294.192	1.6	1254395	WORD	n/a	wordpools/wordpool_EN.txt	WOLF	5	21	[0, 0, 0]	n/a	FR1	1	R1001P
2296.709	1.6	1255654	WORD	n/a	wordpools/wordpool_EN.txt	SHIP	6	21	[0, 0, 0]	n/a	FR1	1	R1001P
2299.327	1.6	1256963	WORD	n/a	wordpools/wordpool_EN.txt	RIB	7	21	[0, 0, 0]	n/a	FR1	1	R1001P
2301.76	1.6	1258179	WORD	n/a	wordpools/wordpool_EN.txt	MOLE	8	21	[0, 0, 0]	n/a	FR1	1	R1001P
2304.227	1.6	1259412	WORD	n/a	wordpools/wordpool_EN.txt	MOTH	9	21	[0, 0, 0]	n/a	FR1	1	R1001P
2306.827	1.6	1260712	WORD	n/a	wordpools/wordpool_EN.txt	TEETH	10	21	[0, 0, 0]	n/a	FR1	1	R1001P
2309.244	1.6	1261921	WORD	n/a	wordpools/wordpool_EN.txt	FOX	11	21	[0, 0, 0]	n/a	FR1	1	R1001P
2311.862	1.6	1263230	WORD	n/a	wordpools/wordpool_EN.txt	BEAR	12	21	[0, 0, 0]	n/a	FR1	1	R1001P
2313.48	0.001	1264039	DISTRACT_START	n/a	n/a	n/a	-999	21	[0, 0, 0]	n/a	FR1	1	R1001P
2313.481	0.015	1264039	START	n/a	n/a	n/a	-999	21	[-999, -999, -999]	n/a	FR1	1	R1001P
2313.496	10.668	1264047	PROB	10.646	n/a	n/a	-999	21	[9, 8, 2]	19.0	FR1	1	R1001P
2324.164	10.339	1269380	PROB	10.339	n/a	n/a	-999	21	[6, 2, 7]	15.0	FR1	1	R1001P
2334.503	0.014	1274550	STOP	n/a	n/a	n/a	-999	21	[-999, -999, -999]	n/a	FR1	1	R1001P
2334.517	1.167	1274557	DISTRACT_END	n/a	n/a	n/a	-999	21	[0, 0, 0]	n/a	FR1	1	R1001P
2335.684	1.494	1275140	REC_START	n/a	n/a	n/a	-999	21	[0, 0, 0]	n/a	FR1	1	R1001P
2337.178	3.695	1275887	REC_WORD	1.494	n/a	SNOW	-999	21	[0, 0, 0]	n/a	FR1	1	R1001P
2340.873	1.696	1277734	REC_WORD	5.189	n/a	SUN	-999	21	[0, 0, 0]	n/a	FR1	1	R1001P
2342.569	23.125	1278582	REC_WORD	6.885	n/a	SHEEP	-999	21	[0, 0, 0]	n/a	FR1	1	R1001P
2365.694	1.729	1290144	REC_END	n/a	n/a	n/a	-999	21	[0, 0, 0]	n/a	FR1	1	R1001P
2367.423	0.0	1291009	TRIAL	n/a	n/a	n/a	-999	22	[0, 0, 0]	n/a	FR1	1	R1001P
2367.423	10.0	1291009	COUNTDOWN_START	n/a	n/a	n/a	-999	22	[0, 0, 0]	n/a	FR1	1	R1001P
2377.851	0.006	1296222	COUNTDOWN_END	n/a	n/a	n/a	-999	22	[0, 0, 0]	n/a	FR1	1	R1001P
2377.857	1.6	1296225	ORIENT	n/a	n/a	n/a	-999	22	[0, 0, 0]	n/a	FR1	1	R1001P
2380.326	1.6	1297460	WORD	n/a	wordpools/wordpool_EN.txt	TRAY	1	22	[0, 0, 0]	n/a	FR1	1	R1001P
2382.842	1.6	1298718	WORD	n/a	wordpools/wordpool_EN.txt	SPOON	2	22	[0, 0, 0]	n/a	FR1	1	R1001P
2385.327	1.6	1299960	WORD	n/a	wordpools/wordpool_EN.txt	TIE	3	22	[0, 0, 0]	n/a	FR1	1	R1001P
2387.909	1.6	1301251	WORD	n/a	wordpools/wordpool_EN.txt	FROG	4	22	[0, 0, 0]	n/a	FR1	1	R1001P
2390.444	1.6	1302519	WORD	n/a	wordpools/wordpool_EN.txt	SMILE	5	22	[0, 0, 0]	n/a	FR1	1	R1001P
2393.027	1.6	1303810	WORD	n/a	wordpools/wordpool_EN.txt	FORK	6	22	[0, 0, 0]	n/a	FR1	1	R1001P
2395.445	1.6	1305019	WORD	n/a	wordpools/wordpool_EN.txt	VEST	7	22	[0, 0, 0]	n/a	FR1	1	R1001P
2398.011	1.6	1306302	WORD	n/a	wordpools/wordpool_EN.txt	ARM	8	22	[0, 0, 0]	n/a	FR1	1	R1001P
2400.446	1.6	1307519	WORD	n/a	wordpools/wordpool_EN.txt	BREAD	9	22	[0, 0, 0]	n/a	FR1	1	R1001P
2402.996	1.6	1308794	WORD	n/a	wordpools/wordpool_EN.txt	GOAT	10	22	[0, 0, 0]	n/a	FR1	1	R1001P
2405.513	1.6	1310053	WORD	n/a	wordpools/wordpool_EN.txt	PIE	11	22	[0, 0, 0]	n/a	FR1	1	R1001P
2407.93	1.6	1311261	WORD	n/a	wordpools/wordpool_EN.txt	STEAK	12	22	[0, 0, 0]	n/a	FR1	1	R1001P
2409.548	0.001	1312070	DISTRACT_START	n/a	n/a	n/a	-999	22	[0, 0, 0]	n/a	FR1	1	R1001P
2409.549	0.015	1312071	START	n/a	n/a	n/a	-999	22	[-999, -999, -999]	n/a	FR1	1	R1001P
2409.564	17.887	1312078	PROB	17.867	n/a	n/a	-999	22	[9, 6, 4]	19.0	FR1	1	R1001P
2427.451	17.283	1321021	PROB	17.283	n/a	n/a	-999	22	[3, 2, 9]	14.0	FR1	1	R1001P
2444.734	0.019	1329662	STOP	n/a	n/a	n/a	-999	22	[-999, -999, -999]	n/a	FR1	1	R1001P
2444.753	1.152	1329672	DISTRACT_END	n/a	n/a	n/a	-999	22	[0, 0, 0]	n/a	FR1	1	R1001P
2445.905	2.578	1330248	REC_START	n/a	n/a	n/a	-999	22	[0, 0, 0]	n/a	FR1	1	R1001P
2448.483	3.241	1331537	REC_WORD	2.578	n/a	STEAK	-999	22	[0, 0, 0]	n/a	FR1	1	R1001P
2451.724	5.444	1333157	REC_WORD	5.819	n/a	RIB	-999	22	[0, 0, 0]	n/a	FR1	1	R1001P
2457.168	18.747	1335879	REC_WORD	11.263	n/a	FOOD	-999	22	[0, 0, 0]	n/a	FR1	1	R1001P
2475.915	2.078	1345252	REC_END	n/a	n/a	n/a	-999	22	[0, 0, 0]	n/a	FR1	1	R1001P
2477.993	10.0	1346291	COUNTDOWN_START	n/a	n/a	n/a	-999	23	[0, 0, 0]	n/a	FR1	1	R1001P
2477.993	10.428	1346291	TRIAL	n/a	n/a	n/a	-999	23	[0, 0, 0]	n/a	FR1	1	R1001P
2488.421	0.008	1351504	COUNTDOWN_END	n/a	n/a	n/a	-999	23	[0, 0, 0]	n/a	FR1	1	R1001P
2488.429	1.6	1351508	ORIENT	n/a	n/a	n/a	-999	23	[0, 0, 0]	n/a	FR1	1	R1001P
2491.029	1.6	1352808	WORD	n/a	wordpools/wordpool_EN.txt	MUG	1	23	[0, 0, 0]	n/a	FR1	1	R1001P
2493.597	1.6	1354092	WORD	n/a	wordpools/wordpool_EN.txt	TRUCK	2	23	[0, 0, 0]	n/a	FR1	1	R1001P
2496.063	1.6	1355325	WORD	n/a	wordpools/wordpool_EN.txt	STOOL	3	23	[0, 0, 0]	n/a	FR1	1	R1001P
2498.581	1.6	1356584	WORD	n/a	wordpools/wordpool_EN.txt	PURSE	4	23	[0, 0, 0]	n/a	FR1	1	R1001P
2501.18	1.6	1357884	WORD	n/a	wordpools/wordpool_EN.txt	SHELL	5	23	[0, 0, 0]	n/a	FR1	1	R1001P
2503.764	1.6	1359176	WORD	n/a	wordpools/wordpool_EN.txt	PEARL	6	23	[0, 0, 0]	n/a	FR1	1	R1001P
2506.215	1.6	1360401	WORD	n/a	wordpools/wordpool_EN.txt	MAZE	7	23	[0, 0, 0]	n/a	FR1	1	R1001P
2508.632	1.6	1361609	WORD	n/a	wordpools/wordpool_EN.txt	FLOOR	8	23	[0, 0, 0]	n/a	FR1	1	R1001P
2511.249	1.6	1362918	WORD	n/a	wordpools/wordpool_EN.txt	VAN	9	23	[0, 0, 0]	n/a	FR1	1	R1001P
2513.733	1.6	1364160	WORD	n/a	wordpools/wordpool_EN.txt	HOOK	10	23	[0, 0, 0]	n/a	FR1	1	R1001P
2516.2	1.6	1365393	WORD	n/a	wordpools/wordpool_EN.txt	PEA	11	23	[0, 0, 0]	n/a	FR1	1	R1001P
2518.817	1.6	1366702	WORD	n/a	wordpools/wordpool_EN.txt	CLOWN	12	23	[0, 0, 0]	n/a	FR1	1	R1001P
2520.418	0.001	1367502	DISTRACT_START	n/a	n/a	n/a	-999	23	[0, 0, 0]	n/a	FR1	1	R1001P
2520.419	0.016	1367503	START	n/a	n/a	n/a	-999	23	[-999, -999, -999]	n/a	FR1	1	R1001P
2520.435	22.571	1367511	PROB	22.571	n/a	n/a	-999	23	[4, 7, 9]	20.0	FR1	1	R1001P
2543.006	0.016	1378795	STOP	n/a	n/a	n/a	-999	23	[-999, -999, -999]	n/a	FR1	1	R1001P
2543.022	1.201	1378803	DISTRACT_END	n/a	n/a	n/a	-999	23	[0, 0, 0]	n/a	FR1	1	R1001P
2544.223	2.001	1379404	REC_START	n/a	n/a	n/a	-999	23	[0, 0, 0]	n/a	FR1	1	R1001P
2546.224	1.399	1380404	REC_WORD	2.001	n/a	HOOK	-999	23	[0, 0, 0]	n/a	FR1	1	R1001P
2547.623	2.337	1381104	REC_WORD	3.4	n/a	PEA	-999	23	[0, 0, 0]	n/a	FR1	1	R1001P
2549.96	24.273	1382272	REC_WORD	5.737	n/a	CLOWN	-999	23	[0, 0, 0]	n/a	FR1	1	R1001P
2574.233	2.246	1394408	REC_END	n/a	n/a	n/a	-999	23	[0, 0, 0]	n/a	FR1	1	R1001P
2576.479	0.0	1395531	TRIAL	n/a	n/a	n/a	-999	24	[0, 0, 0]	n/a	FR1	1	R1001P
2576.479	10.0	1395531	COUNTDOWN_START	n/a	n/a	n/a	-999	24	[0, 0, 0]	n/a	FR1	1	R1001P
2586.907	0.007	1400745	COUNTDOWN_END	n/a	n/a	n/a	-999	24	[0, 0, 0]	n/a	FR1	1	R1001P
2586.914	1.6	1400748	ORIENT	n/a	n/a	n/a	-999	24	[0, 0, 0]	n/a	FR1	1	R1001P
2589.515	1.6	1402049	WORD	n/a	wordpools/wordpool_EN.txt	BRUSH	1	24	[0, 0, 0]	n/a	FR1	1	R1001P
2592.131	1.6	1403357	WORD	n/a	wordpools/wordpool_EN.txt	FLAME	2	24	[0, 0, 0]	n/a	FR1	1	R1001P
2594.549	1.6	1404566	WORD	n/a	wordpools/wordpool_EN.txt	STICK	3	24	[0, 0, 0]	n/a	FR1	1	R1001P
2597.032	1.6	1405807	WORD	n/a	wordpools/wordpool_EN.txt	ROSE	4	24	[0, 0, 0]	n/a	FR1	1	R1001P
2599.517	1.6	1407049	WORD	n/a	wordpools/wordpool_EN.txt	POND	5	24	[0, 0, 0]	n/a	FR1	1	R1001P
2602.1	1.6	1408341	WORD	n/a	wordpools/wordpool_EN.txt	PARK	6	24	[0, 0, 0]	n/a	FR1	1	R1001P
2604.484	1.6	1409533	WORD	n/a	wordpools/wordpool_EN.txt	SLIME	7	24	[0, 0, 0]	n/a	FR1	1	R1001P
2607.001	1.6	1410791	WORD	n/a	wordpools/wordpool_EN.txt	DEER	8	24	[0, 0, 0]	n/a	FR1	1	R1001P
2609.402	1.6	1411992	WORD	n/a	wordpools/wordpool_EN.txt	LIP	9	24	[0, 0, 0]	n/a	FR1	1	R1001P
2611.835	1.6	1413208	WORD	n/a	wordpools/wordpool_EN.txt	MAT	10	24	[0, 0, 0]	n/a	FR1	1	R1001P
2614.453	1.6	1414517	WORD	n/a	wordpools/wordpool_EN.txt	CLIFF	11	24	[0, 0, 0]	n/a	FR1	1	R1001P
2617.053	1.6	1415817	WORD	n/a	wordpools/wordpool_EN.txt	JAR	12	24	[0, 0, 0]	n/a	FR1	1	R1001P
2618.669	0.001	1416625	DISTRACT_START	n/a	n/a	n/a	-999	24	[0, 0, 0]	n/a	FR1	1	R1001P
2618.67	0.016	1416625	START	n/a	n/a	n/a	-999	24	[-999, -999, -999]	n/a	FR1	1	R1001P
2618.686	16.937	1416633	PROB	16.905	n/a	n/a	-999	24	[3, 3, 5]	11.0	FR1	1	R1001P
2635.623	9.455	1425101	PROB	9.455	n/a	n/a	-999	24	[3, 6, 7]	16.0	FR1	1	R1001P
2645.078	0.013	1429829	STOP	n/a	n/a	n/a	-999	24	[-999, -999, -999]	n/a	FR1	1	R1001P
2645.091	1.101	1429835	DISTRACT_END	n/a	n/a	n/a	-999	24	[0, 0, 0]	n/a	FR1	1	R1001P
2646.192	1.838	1430386	REC_START	n/a	n/a	n/a	-999	24	[0, 0, 0]	n/a	FR1	1	R1001P
2648.03	0.725	1431305	REC_WORD	1.838	n/a	ROSE	-999	24	[0, 0, 0]	n/a	FR1	1	R1001P
2648.755	1.108	1431667	REC_WORD	2.563	n/a	LIP	-999	24	[0, 0, 0]	n/a	FR1	1	R1001P
2649.863	1.357	1432221	REC_WORD	3.671	n/a	PIE	-999	24	[0, 0, 0]	n/a	FR1	1	R1001P
2651.22	24.982	1432900	REC_WORD	5.028	n/a	PEA	-999	24	[0, 0, 0]	n/a	FR1	1	R1001P
2676.202	2.562	1445390	REC_END	n/a	n/a	n/a	-999	24	[0, 0, 0]	n/a	FR1	1	R1001P
2678.764	0.0	1446671	TRIAL	n/a	n/a	n/a	-999	25	[0, 0, 0]	n/a	FR1	1	R1001P
2678.764	10.0	1446671	COUNTDOWN_START	n/a	n/a	n/a	-999	25	[0, 0, 0]	n/a	FR1	1	R1001P
2689.192	0.007	1451884	COUNTDOWN_END	n/a	n/a	n/a	-999	25	[0, 0, 0]	n/a	FR1	1	R1001P
2689.199	1.6	1451888	ORIENT	n/a	n/a	n/a	-999	25	[0, 0, 0]	n/a	FR1	1	R1001P
2691.601	1.6	1453089	WORD	n/a	wordpools/wordpool_EN.txt	STONE	1	25	[0, 0, 0]	n/a	FR1	1	R1001P
2694.083	1.6	1454330	WORD	n/a	wordpools/wordpool_EN.txt	FOAM	2	25	[0, 0, 0]	n/a	FR1	1	R1001P
2696.667	1.6	1455622	WORD	n/a	wordpools/wordpool_EN.txt	CUBE	3	25	[0, 0, 0]	n/a	FR1	1	R1001P
2699.185	1.6	1456881	WORD	n/a	wordpools/wordpool_EN.txt	BEACH	4	25	[0, 0, 0]	n/a	FR1	1	R1001P
2701.719	1.6	1458148	WORD	n/a	wordpools/wordpool_EN.txt	ROOF	5	25	[0, 0, 0]	n/a	FR1	1	R1001P
2704.269	1.6	1459423	WORD	n/a	wordpools/wordpool_EN.txt	CAVE	6	25	[0, 0, 0]	n/a	FR1	1	R1001P
2706.669	1.6	1460622	WORD	n/a	wordpools/wordpool_EN.txt	WEB	7	25	[0, 0, 0]	n/a	FR1	1	R1001P
2709.053	1.6	1461814	WORD	n/a	wordpools/wordpool_EN.txt	HOLE	8	25	[0, 0, 0]	n/a	FR1	1	R1001P
2711.521	1.6	1463048	WORD	n/a	wordpools/wordpool_EN.txt	BUSH	9	25	[0, 0, 0]	n/a	FR1	1	R1001P
2713.921	1.6	1464248	WORD	n/a	wordpools/wordpool_EN.txt	SNAIL	10	25	[0, 0, 0]	n/a	FR1	1	R1001P
2716.472	1.6	1465524	WORD	n/a	wordpools/wordpool_EN.txt	LAKE	11	25	[0, 0, 0]	n/a	FR1	1	R1001P
2718.972	1.6	1466774	WORD	n/a	wordpools/wordpool_EN.txt	SPEAR	12	25	[0, 0, 0]	n/a	FR1	1	R1001P
2720.59	0.001	1467583	DISTRACT_START	n/a	n/a	n/a	-999	25	[0, 0, 0]	n/a	FR1	1	R1001P
2720.591	0.015	1467583	START	n/a	n/a	n/a	-999	25	[-999, -999, -999]	n/a	FR1	1	R1001P
2720.606	27.128	1467591	PROB	27.128	n/a	n/a	-999	25	[2, 8, 4]	14.0	FR1	1	R1001P
2747.734	0.01	1481154	STOP	n/a	n/a	n/a	-999	25	[-999, -999, -999]	n/a	FR1	1	R1001P
2747.744	1.051	1481159	DISTRACT_END	n/a	n/a	n/a	-999	25	[0, 0, 0]	n/a	FR1	1	R1001P
2748.795	30.0	1481684	REC_START	n/a	n/a	n/a	-999	25	[0, 0, 0]	n/a	FR1	1	R1001P
2778.795	0.01	1496684	REC_WORD_VV	30.0	n/a	<>	-999	25	[0, 0, 0]	n/a	FR1	1	R1001P
2778.805	26.066	1496689	REC_END	n/a	n/a	n/a	-999	25	[0, 0, 0]	n/a	FR1	1	R1001P
2804.871	0.0	1509721	SESS_END	n/a	n/a	n/a	-999	25	[0, 0, 0]	n/a	FR1	1	R1001P
