onset	duration	sample	trial_type	response_time	stim_file	item_name	serialpos	list	test	answer	experiment	session	subject
0.0	18.412	270988	SESS_START	n/a	n/a	n/a	-999	-999	[0, 0, 0]	n/a	FR1	1	R1065J
18.412	10.0	289401	COUNTDOWN_START	n/a	n/a	n/a	-999	-999	[0, 0, 0]	n/a	FR1	1	R1065J
28.84	3.674	299829	COUNTDOWN_END	n/a	n/a	n/a	-999	-999	[0, 0, 0]	n/a	FR1	1	R1065J
32.514	1.6	303503	PRACTICE_WORD	n/a	n/a	RING	1	-1	[0, 0, 0]	n/a	FR1	1	R1065J
35.114	1.6	306103	PRACTICE_WORD	n/a	n/a	ATTIC	2	-1	[0, 0, 0]	n/a	FR1	1	R1065J
37.615	1.6	308604	PRACTICE_WORD	n/a	n/a	WAGON	3	-1	[0, 0, 0]	n/a	FR1	1	R1065J
40.182	1.6	311171	PRACTICE_WORD	n/a	n/a	CAMEL	4	-1	[0, 0, 0]	n/a	FR1	1	R1065J
42.698	1.6	313687	PRACTICE_WORD	n/a	n/a	BEAM	5	-1	[0, 0, 0]	n/a	FR1	1	R1065J
45.249	1.6	316238	PRACTICE_WORD	n/a	n/a	TONGUE	6	-1	[0, 0, 0]	n/a	FR1	1	R1065J
47.816	1.6	318805	PRACTICE_WORD	n/a	n/a	IRON	7	-1	[0, 0, 0]	n/a	FR1	1	R1065J
50.4	1.6	321389	PRACTICE_WORD	n/a	n/a	COTTON	8	-1	[0, 0, 0]	n/a	FR1	1	R1065J
52.867	1.6	323856	PRACTICE_WORD	n/a	n/a	FLOOD	9	-1	[0, 0, 0]	n/a	FR1	1	R1065J
55.45	1.6	326439	PRACTICE_WORD	n/a	n/a	WATCH	10	-1	[0, 0, 0]	n/a	FR1	1	R1065J
58.018	1.6	329007	PRACTICE_WORD	n/a	n/a	RHINO	11	-1	[0, 0, 0]	n/a	FR1	1	R1065J
60.535	1.6	331524	PRACTICE_WORD	n/a	n/a	CHEST	12	-1	[0, 0, 0]	n/a	FR1	1	R1065J
62.151	0.001	333140	PRACTICE_DISTRACT_START	n/a	n/a	n/a	-999	-1	[0, 0, 0]	n/a	FR1	1	R1065J
62.152	0.016	333141	START	n/a	n/a	n/a	-999	-1	[-999, -999, -999]	n/a	FR1	1	R1065J
62.168	3.617	333157	PROB	3.593	n/a	n/a	-999	-1	[9, 4, 7]	20.0	FR1	1	R1065J
65.785	2.501	336774	PROB	2.464	n/a	n/a	-999	-1	[2, 6, 8]	16.0	FR1	1	R1065J
68.286	2.7	339275	PROB	2.667	n/a	n/a	-999	-1	[3, 4, 3]	10.0	FR1	1	R1065J
70.986	2.683	341975	PROB	2.663	n/a	n/a	-999	-1	[6, 2, 3]	11.0	FR1	1	R1065J
73.669	1.801	344658	PROB	1.772	n/a	n/a	-999	-1	[5, 2, 5]	12.0	FR1	1	R1065J
75.47	2.767	346459	PROB	2.731	n/a	n/a	-999	-1	[9, 4, 4]	17.0	FR1	1	R1065J
78.237	3.167	349226	PROB	3.132	n/a	n/a	-999	-1	[5, 7, 1]	13.0	FR1	1	R1065J
81.404	2.485	352393	PROB	2.485	n/a	n/a	-999	-1	[8, 5, 3]	16.0	FR1	1	R1065J
83.889	0.016	354878	STOP	n/a	n/a	n/a	-999	-1	[-999, -999, -999]	n/a	FR1	1	R1065J
83.905	0.535	354894	PRACTICE_DISTRACT_END	n/a	n/a	n/a	-999	-1	[0, 0, 0]	n/a	FR1	1	R1065J
84.44	30.515	355429	PRACTICE_REC_START	n/a	n/a	n/a	-999	-1	[0, 0, 0]	n/a	FR1	1	R1065J
114.955	34.259	385945	PRACTICE_REC_END	n/a	n/a	n/a	-999	-1	[0, 0, 0]	n/a	FR1	1	R1065J
149.214	10.0	420204	COUNTDOWN_START	n/a	n/a	n/a	-999	1	[0, 0, 0]	n/a	FR1	1	R1065J
149.214	10.428	420204	TRIAL	n/a	n/a	n/a	-999	1	[0, 0, 0]	n/a	FR1	1	R1065J
159.642	0.007	430632	COUNTDOWN_END	n/a	n/a	n/a	-999	1	[0, 0, 0]	n/a	FR1	1	R1065J
159.649	1.6	430639	ORIENT	n/a	n/a	n/a	-999	1	[0, 0, 0]	n/a	FR1	1	R1065J
162.082	1.6	433072	WORD	n/a	wordpools/wordpool_EN.txt	VEST	1	1	[0, 0, 0]	n/a	FR1	1	R1065J
164.483	1.6	435473	WORD	n/a	wordpools/wordpool_EN.txt	CANE	2	1	[0, 0, 0]	n/a	FR1	1	R1065J
167.016	1.6	438006	WORD	n/a	wordpools/wordpool_EN.txt	DRESS	3	1	[0, 0, 0]	n/a	FR1	1	R1065J
169.55	1.6	440540	WORD	n/a	wordpools/wordpool_EN.txt	BLUSH	4	1	[0, 0, 0]	n/a	FR1	1	R1065J
171.984	1.6	442974	WORD	n/a	wordpools/wordpool_EN.txt	BLOOM	5	1	[0, 0, 0]	n/a	FR1	1	R1065J
174.517	1.6	445507	WORD	n/a	wordpools/wordpool_EN.txt	LIP	6	1	[0, 0, 0]	n/a	FR1	1	R1065J
177.018	1.6	448008	WORD	n/a	wordpools/wordpool_EN.txt	AXE	7	1	[0, 0, 0]	n/a	FR1	1	R1065J
179.435	1.6	450425	WORD	n/a	wordpools/wordpool_EN.txt	TIE	8	1	[0, 0, 0]	n/a	FR1	1	R1065J
182.019	1.6	453009	WORD	n/a	wordpools/wordpool_EN.txt	SOCK	9	1	[0, 0, 0]	n/a	FR1	1	R1065J
184.486	1.6	455476	WORD	n/a	wordpools/wordpool_EN.txt	POND	10	1	[0, 0, 0]	n/a	FR1	1	R1065J
186.936	1.6	457926	WORD	n/a	wordpools/wordpool_EN.txt	HAND	11	1	[0, 0, 0]	n/a	FR1	1	R1065J
189.403	1.6	460393	WORD	n/a	wordpools/wordpool_EN.txt	VASE	12	1	[0, 0, 0]	n/a	FR1	1	R1065J
191.02	0.001	462010	DISTRACT_START	n/a	n/a	n/a	-999	1	[0, 0, 0]	n/a	FR1	1	R1065J
191.021	0.016	462011	START	n/a	n/a	n/a	-999	1	[-999, -999, -999]	n/a	FR1	1	R1065J
191.037	3.0	462027	PROB	2.969	n/a	n/a	-999	1	[3, 7, 9]	19.0	FR1	1	R1065J
194.037	3.0	465027	PROB	2.969	n/a	n/a	-999	1	[8, 4, 1]	13.0	FR1	1	R1065J
197.037	1.801	468027	PROB	1.777	n/a	n/a	-999	1	[5, 2, 5]	12.0	FR1	1	R1065J
198.838	2.217	469828	PROB	2.184	n/a	n/a	-999	1	[2, 6, 5]	13.0	FR1	1	R1065J
201.055	1.916	472045	PROB	1.886	n/a	n/a	-999	1	[8, 2, 6]	16.0	FR1	1	R1065J
202.971	2.834	473961	PROB	2.803	n/a	n/a	-999	1	[6, 9, 3]	18.0	FR1	1	R1065J
205.805	2.484	476795	PROB	2.464	n/a	n/a	-999	1	[4, 5, 3]	12.0	FR1	1	R1065J
208.289	2.217	479280	PROB	2.196	n/a	n/a	-999	1	[2, 6, 5]	13.0	FR1	1	R1065J
210.506	2.276	481497	PROB	2.276	n/a	n/a	-999	1	[8, 4, 6]	16.0	FR1	1	R1065J
212.782	0.008	483773	STOP	n/a	n/a	n/a	-999	1	[-999, -999, -999]	n/a	FR1	1	R1065J
212.79	1.117	483781	DISTRACT_END	n/a	n/a	n/a	-999	1	[0, 0, 0]	n/a	FR1	1	R1065J
213.907	1.38	484898	REC_START	n/a	n/a	n/a	-999	1	[0, 0, 0]	n/a	FR1	1	R1065J
215.287	1.74	486278	REC_WORD	1.38	n/a	VEST	-999	1	[0, 0, 0]	n/a	FR1	1	R1065J
217.027	1.522	488018	REC_WORD	3.12	n/a	TIE	-999	1	[0, 0, 0]	n/a	FR1	1	R1065J
218.549	2.378	489540	REC_WORD	4.642	n/a	DRESS	-999	1	[0, 0, 0]	n/a	FR1	1	R1065J
220.927	2.635	491918	REC_WORD	7.02	n/a	LIP	-999	1	[0, 0, 0]	n/a	FR1	1	R1065J
223.562	2.305	494553	REC_WORD	9.655	n/a	BLUSH	-999	1	[0, 0, 0]	n/a	FR1	1	R1065J
225.867	4.173	496858	REC_WORD	11.96	n/a	SOCK	-999	1	[0, 0, 0]	n/a	FR1	1	R1065J
230.04	13.875	501031	REC_WORD_VV	16.133	n/a	<>	-999	1	[0, 0, 0]	n/a	FR1	1	R1065J
243.915	3.23	514906	REC_END	n/a	n/a	n/a	-999	1	[0, 0, 0]	n/a	FR1	1	R1065J
247.145	0.0	518136	TRIAL	n/a	n/a	n/a	-999	2	[0, 0, 0]	n/a	FR1	1	R1065J
247.145	10.0	518136	COUNTDOWN_START	n/a	n/a	n/a	-999	2	[0, 0, 0]	n/a	FR1	1	R1065J
257.573	0.006	528564	COUNTDOWN_END	n/a	n/a	n/a	-999	2	[0, 0, 0]	n/a	FR1	1	R1065J
257.579	1.6	528570	ORIENT	n/a	n/a	n/a	-999	2	[0, 0, 0]	n/a	FR1	1	R1065J
260.13	1.6	531121	WORD	n/a	wordpools/wordpool_EN.txt	SWAMP	1	2	[0, 0, 0]	n/a	FR1	1	R1065J
262.53	1.6	533521	WORD	n/a	wordpools/wordpool_EN.txt	TRASH	2	2	[0, 0, 0]	n/a	FR1	1	R1065J
264.997	1.6	535988	WORD	n/a	wordpools/wordpool_EN.txt	JAR	3	2	[0, 0, 0]	n/a	FR1	1	R1065J
267.531	1.6	538522	WORD	n/a	wordpools/wordpool_EN.txt	DITCH	4	2	[0, 0, 0]	n/a	FR1	1	R1065J
270.031	1.6	541022	WORD	n/a	wordpools/wordpool_EN.txt	ROSE	5	2	[0, 0, 0]	n/a	FR1	1	R1065J
272.565	1.6	543556	WORD	n/a	wordpools/wordpool_EN.txt	PIT	6	2	[0, 0, 0]	n/a	FR1	1	R1065J
275.049	1.6	546040	WORD	n/a	wordpools/wordpool_EN.txt	PARK	7	2	[0, 0, 0]	n/a	FR1	1	R1065J
277.665	1.6	548656	WORD	n/a	wordpools/wordpool_EN.txt	FLUTE	8	2	[0, 0, 0]	n/a	FR1	1	R1065J
280.049	1.6	551040	WORD	n/a	wordpools/wordpool_EN.txt	BREAD	9	2	[0, 0, 0]	n/a	FR1	1	R1065J
282.65	1.6	553641	WORD	n/a	wordpools/wordpool_EN.txt	PIE	10	2	[0, 0, 0]	n/a	FR1	1	R1065J
285.233	1.6	556224	WORD	n/a	wordpools/wordpool_EN.txt	CAKE	11	2	[0, 0, 0]	n/a	FR1	1	R1065J
287.617	1.6	558608	WORD	n/a	wordpools/wordpool_EN.txt	FENCE	12	2	[0, 0, 0]	n/a	FR1	1	R1065J
289.234	0.001	560225	DISTRACT_START	n/a	n/a	n/a	-999	2	[0, 0, 0]	n/a	FR1	1	R1065J
289.235	0.016	560226	START	n/a	n/a	n/a	-999	2	[-999, -999, -999]	n/a	FR1	1	R1065J
289.251	3.1	560242	PROB	3.08	n/a	n/a	-999	2	[3, 8, 7]	18.0	FR1	1	R1065J
292.351	1.967	563342	PROB	1.94	n/a	n/a	-999	2	[5, 4, 1]	10.0	FR1	1	R1065J
294.318	2.633	565309	PROB	2.613	n/a	n/a	-999	2	[3, 2, 4]	9.0	FR1	1	R1065J
296.951	2.284	567942	PROB	2.26	n/a	n/a	-999	2	[6, 2, 9]	17.0	FR1	1	R1065J
299.235	2.351	570226	PROB	2.328	n/a	n/a	-999	2	[7, 6, 3]	16.0	FR1	1	R1065J
301.586	3.467	572577	PROB	3.441	n/a	n/a	-999	2	[4, 8, 4]	16.0	FR1	1	R1065J
305.053	2.75	576045	PROB	2.718	n/a	n/a	-999	2	[3, 5, 4]	12.0	FR1	1	R1065J
307.803	2.392	578795	PROB	2.392	n/a	n/a	-999	2	[6, 2, 6]	14.0	FR1	1	R1065J
310.195	0.009	581187	STOP	n/a	n/a	n/a	-999	2	[-999, -999, -999]	n/a	FR1	1	R1065J
310.204	1.067	581196	DISTRACT_END	n/a	n/a	n/a	-999	2	[0, 0, 0]	n/a	FR1	1	R1065J
311.271	1.828	582263	REC_START	n/a	n/a	n/a	-999	2	[0, 0, 0]	n/a	FR1	1	R1065J
313.099	1.795	584091	REC_WORD	1.828	n/a	PIE	-999	2	[0, 0, 0]	n/a	FR1	1	R1065J
314.894	1.473	585886	REC_WORD	3.623	n/a	BREAD	-999	2	[0, 0, 0]	n/a	FR1	1	R1065J
316.367	2.362	587359	REC_WORD	5.096	n/a	TRASH	-999	2	[0, 0, 0]	n/a	FR1	1	R1065J
318.729	13.05	589721	REC_WORD	7.458	n/a	DITCH	-999	2	[0, 0, 0]	n/a	FR1	1	R1065J
331.779	9.502	602771	REC_WORD	20.508	n/a	JAR	-999	2	[0, 0, 0]	n/a	FR1	1	R1065J
341.281	3.011	612273	REC_END	n/a	n/a	n/a	-999	2	[0, 0, 0]	n/a	FR1	1	R1065J
344.292	0.0	615284	TRIAL	n/a	n/a	n/a	-999	3	[0, 0, 0]	n/a	FR1	1	R1065J
344.292	10.0	615284	COUNTDOWN_START	n/a	n/a	n/a	-999	3	[0, 0, 0]	n/a	FR1	1	R1065J
354.72	0.006	625712	COUNTDOWN_END	n/a	n/a	n/a	-999	3	[0, 0, 0]	n/a	FR1	1	R1065J
354.726	1.6	625718	ORIENT	n/a	n/a	n/a	-999	3	[0, 0, 0]	n/a	FR1	1	R1065J
357.277	1.6	628269	WORD	n/a	wordpools/wordpool_EN.txt	GOLD	1	3	[0, 0, 0]	n/a	FR1	1	R1065J
359.727	1.6	630719	WORD	n/a	wordpools/wordpool_EN.txt	SHEEP	2	3	[0, 0, 0]	n/a	FR1	1	R1065J
362.161	1.6	633153	WORD	n/a	wordpools/wordpool_EN.txt	CAPE	3	3	[0, 0, 0]	n/a	FR1	1	R1065J
364.744	1.6	635736	WORD	n/a	wordpools/wordpool_EN.txt	MOOSE	4	3	[0, 0, 0]	n/a	FR1	1	R1065J
367.295	1.6	638287	WORD	n/a	wordpools/wordpool_EN.txt	TOOTH	5	3	[0, 0, 0]	n/a	FR1	1	R1065J
369.845	1.6	640837	WORD	n/a	wordpools/wordpool_EN.txt	TEETH	6	3	[0, 0, 0]	n/a	FR1	1	R1065J
372.429	1.6	643421	WORD	n/a	wordpools/wordpool_EN.txt	SAIL	7	3	[0, 0, 0]	n/a	FR1	1	R1065J
374.946	1.6	645938	WORD	n/a	wordpools/wordpool_EN.txt	FOX	8	3	[0, 0, 0]	n/a	FR1	1	R1065J
377.413	1.6	648405	WORD	n/a	wordpools/wordpool_EN.txt	LEAF	9	3	[0, 0, 0]	n/a	FR1	1	R1065J
379.864	1.6	650856	WORD	n/a	wordpools/wordpool_EN.txt	ANT	10	3	[0, 0, 0]	n/a	FR1	1	R1065J
382.297	1.6	653289	WORD	n/a	wordpools/wordpool_EN.txt	STEM	11	3	[0, 0, 0]	n/a	FR1	1	R1065J
384.696	1.6	655688	WORD	n/a	wordpools/wordpool_EN.txt	MOUSE	12	3	[0, 0, 0]	n/a	FR1	1	R1065J
386.297	0.001	657289	DISTRACT_START	n/a	n/a	n/a	-999	3	[0, 0, 0]	n/a	FR1	1	R1065J
386.298	0.016	657290	START	n/a	n/a	n/a	-999	3	[-999, -999, -999]	n/a	FR1	1	R1065J
386.314	3.568	657306	PROB	3.543	n/a	n/a	-999	3	[5, 3, 6]	14.0	FR1	1	R1065J
389.882	2.033	660874	PROB	2.006	n/a	n/a	-999	3	[1, 8, 1]	10.0	FR1	1	R1065J
391.915	5.368	662907	PROB	5.341	n/a	n/a	-999	3	[5, 9, 8]	22.0	FR1	1	R1065J
397.283	1.917	668275	PROB	1.893	n/a	n/a	-999	3	[7, 4, 7]	18.0	FR1	1	R1065J
399.2	3.183	670192	PROB	3.152	n/a	n/a	-999	3	[7, 5, 8]	20.0	FR1	1	R1065J
402.383	2.401	673376	PROB	2.377	n/a	n/a	-999	3	[9, 4, 3]	16.0	FR1	1	R1065J
404.784	2.112	675777	PROB	2.112	n/a	n/a	-999	3	[4, 1, 4]	9.0	FR1	1	R1065J
406.896	0.005	677889	STOP	n/a	n/a	n/a	-999	3	[-999, -999, -999]	n/a	FR1	1	R1065J
406.901	1.184	677894	DISTRACT_END	n/a	n/a	n/a	-999	3	[0, 0, 0]	n/a	FR1	1	R1065J
408.085	1.943	679078	REC_START	n/a	n/a	n/a	-999	3	[0, 0, 0]	n/a	FR1	1	R1065J
410.028	1.547	681021	REC_WORD	1.943	n/a	TOOTH	-999	3	[0, 0, 0]	n/a	FR1	1	R1065J
411.575	1.962	682568	REC_WORD	3.49	n/a	TEETH	-999	3	[0, 0, 0]	n/a	FR1	1	R1065J
413.537	2.838	684530	REC_WORD	5.452	n/a	STEM	-999	3	[0, 0, 0]	n/a	FR1	1	R1065J
416.375	10.525	687368	REC_WORD	8.29	n/a	MOOSE	-999	3	[0, 0, 0]	n/a	FR1	1	R1065J
426.9	11.195	697893	REC_WORD	18.815	n/a	SHEEP	-999	3	[0, 0, 0]	n/a	FR1	1	R1065J
438.095	4.444	709088	REC_END	n/a	n/a	n/a	-999	3	[0, 0, 0]	n/a	FR1	1	R1065J
442.539	0.0	713532	TRIAL	n/a	n/a	n/a	-999	4	[0, 0, 0]	n/a	FR1	1	R1065J
442.539	10.0	713532	COUNTDOWN_START	n/a	n/a	n/a	-999	4	[0, 0, 0]	n/a	FR1	1	R1065J
452.967	0.007	723960	COUNTDOWN_END	n/a	n/a	n/a	-999	4	[0, 0, 0]	n/a	FR1	1	R1065J
452.974	1.6	723967	ORIENT	n/a	n/a	n/a	-999	4	[0, 0, 0]	n/a	FR1	1	R1065J
455.474	1.6	726467	WORD	n/a	wordpools/wordpool_EN.txt	FISH	1	4	[0, 0, 0]	n/a	FR1	1	R1065J
458.108	1.6	729101	WORD	n/a	wordpools/wordpool_EN.txt	FUR	2	4	[0, 0, 0]	n/a	FR1	1	R1065J
460.592	1.6	731585	WORD	n/a	wordpools/wordpool_EN.txt	SINK	3	4	[0, 0, 0]	n/a	FR1	1	R1065J
463.092	1.6	734085	WORD	n/a	wordpools/wordpool_EN.txt	MUD	4	4	[0, 0, 0]	n/a	FR1	1	R1065J
465.559	1.6	736552	WORD	n/a	wordpools/wordpool_EN.txt	CROW	5	4	[0, 0, 0]	n/a	FR1	1	R1065J
468.109	1.6	739102	WORD	n/a	wordpools/wordpool_EN.txt	STICK	6	4	[0, 0, 0]	n/a	FR1	1	R1065J
470.643	1.6	741636	WORD	n/a	wordpools/wordpool_EN.txt	WAND	7	4	[0, 0, 0]	n/a	FR1	1	R1065J
473.027	1.6	744020	WORD	n/a	wordpools/wordpool_EN.txt	GEESE	8	4	[0, 0, 0]	n/a	FR1	1	R1065J
475.577	1.6	746570	WORD	n/a	wordpools/wordpool_EN.txt	SNAIL	9	4	[0, 0, 0]	n/a	FR1	1	R1065J
478.094	1.6	749087	WORD	n/a	wordpools/wordpool_EN.txt	CAGE	10	4	[0, 0, 0]	n/a	FR1	1	R1065J
480.66	1.6	751653	WORD	n/a	wordpools/wordpool_EN.txt	ZOO	11	4	[0, 0, 0]	n/a	FR1	1	R1065J
483.245	1.6	754238	WORD	n/a	wordpools/wordpool_EN.txt	STOOL	12	4	[0, 0, 0]	n/a	FR1	1	R1065J
484.862	0.001	755855	DISTRACT_START	n/a	n/a	n/a	-999	4	[0, 0, 0]	n/a	FR1	1	R1065J
484.863	0.015	755856	START	n/a	n/a	n/a	-999	4	[-999, -999, -999]	n/a	FR1	1	R1065J
484.878	2.851	755871	PROB	2.823	n/a	n/a	-999	4	[2, 8, 6]	16.0	FR1	1	R1065J
487.729	2.25	758722	PROB	2.221	n/a	n/a	-999	4	[9, 2, 3]	14.0	FR1	1	R1065J
489.979	4.534	760972	PROB	4.507	n/a	n/a	-999	4	[7, 4, 6]	17.0	FR1	1	R1065J
494.513	4.017	765506	PROB	3.997	n/a	n/a	-999	4	[7, 4, 8]	19.0	FR1	1	R1065J
498.53	2.617	769524	PROB	2.587	n/a	n/a	-999	4	[7, 2, 5]	14.0	FR1	1	R1065J
501.147	2.401	772141	PROB	2.37	n/a	n/a	-999	4	[9, 9, 7]	25.0	FR1	1	R1065J
503.548	2.961	774542	PROB	2.961	n/a	n/a	-999	4	[9, 4, 8]	21.0	FR1	1	R1065J
506.509	0.006	777503	STOP	n/a	n/a	n/a	-999	4	[-999, -999, -999]	n/a	FR1	1	R1065J
506.515	1.051	777509	DISTRACT_END	n/a	n/a	n/a	-999	4	[0, 0, 0]	n/a	FR1	1	R1065J
507.566	2.122	778560	REC_START	n/a	n/a	n/a	-999	4	[0, 0, 0]	n/a	FR1	1	R1065J
509.688	2.234	780682	REC_WORD	2.122	n/a	FISH	-999	4	[0, 0, 0]	n/a	FR1	1	R1065J
511.922	12.868	782916	REC_WORD	4.356	n/a	SINK	-999	4	[0, 0, 0]	n/a	FR1	1	R1065J
524.79	12.786	795784	REC_WORD	17.224	n/a	ANT	-999	4	[0, 0, 0]	n/a	FR1	1	R1065J
537.576	6.311	808570	REC_END	n/a	n/a	n/a	-999	4	[0, 0, 0]	n/a	FR1	1	R1065J
543.887	10.0	814881	COUNTDOWN_START	n/a	n/a	n/a	-999	5	[0, 0, 0]	n/a	FR1	1	R1065J
543.887	10.428	814881	TRIAL	n/a	n/a	n/a	-999	5	[0, 0, 0]	n/a	FR1	1	R1065J
554.315	0.007	825309	COUNTDOWN_END	n/a	n/a	n/a	-999	5	[0, 0, 0]	n/a	FR1	1	R1065J
554.322	1.6	825316	ORIENT	n/a	n/a	n/a	-999	5	[0, 0, 0]	n/a	FR1	1	R1065J
556.805	1.6	827799	WORD	n/a	wordpools/wordpool_EN.txt	FLAME	1	5	[0, 0, 0]	n/a	FR1	1	R1065J
559.322	1.6	830316	WORD	n/a	wordpools/wordpool_EN.txt	STORM	2	5	[0, 0, 0]	n/a	FR1	1	R1065J
561.756	1.6	832750	WORD	n/a	wordpools/wordpool_EN.txt	SPARK	3	5	[0, 0, 0]	n/a	FR1	1	R1065J
564.256	1.6	835250	WORD	n/a	wordpools/wordpool_EN.txt	PASTE	4	5	[0, 0, 0]	n/a	FR1	1	R1065J
566.689	1.6	837683	WORD	n/a	wordpools/wordpool_EN.txt	INK	5	5	[0, 0, 0]	n/a	FR1	1	R1065J
569.157	1.6	840151	WORD	n/a	wordpools/wordpool_EN.txt	PEAR	6	5	[0, 0, 0]	n/a	FR1	1	R1065J
571.657	1.6	842651	WORD	n/a	wordpools/wordpool_EN.txt	BEAK	7	5	[0, 0, 0]	n/a	FR1	1	R1065J
574.191	1.6	845185	WORD	n/a	wordpools/wordpool_EN.txt	JUICE	8	5	[0, 0, 0]	n/a	FR1	1	R1065J
576.758	1.6	847752	WORD	n/a	wordpools/wordpool_EN.txt	FLAG	9	5	[0, 0, 0]	n/a	FR1	1	R1065J
579.209	1.6	850203	WORD	n/a	wordpools/wordpool_EN.txt	CLOTH	10	5	[0, 0, 0]	n/a	FR1	1	R1065J
581.592	1.6	852586	WORD	n/a	wordpools/wordpool_EN.txt	TANK	11	5	[0, 0, 0]	n/a	FR1	1	R1065J
584.159	1.6	855153	WORD	n/a	wordpools/wordpool_EN.txt	BOARD	12	5	[0, 0, 0]	n/a	FR1	1	R1065J
585.776	0.001	856770	DISTRACT_START	n/a	n/a	n/a	-999	5	[0, 0, 0]	n/a	FR1	1	R1065J
585.777	0.016	856771	START	n/a	n/a	n/a	-999	5	[-999, -999, -999]	n/a	FR1	1	R1065J
585.793	2.617	856787	PROB	2.586	n/a	n/a	-999	5	[4, 4, 2]	10.0	FR1	1	R1065J
588.41	4.084	859404	PROB	4.049	n/a	n/a	-999	5	[7, 8, 7]	22.0	FR1	1	R1065J
592.494	1.55	863489	PROB	1.525	n/a	n/a	-999	5	[1, 1, 1]	3.0	FR1	1	R1065J
594.044	2.067	865039	PROB	2.031	n/a	n/a	-999	5	[6, 7, 1]	14.0	FR1	1	R1065J
596.111	2.4	867106	PROB	2.364	n/a	n/a	-999	5	[8, 4, 8]	20.0	FR1	1	R1065J
598.511	2.717	869506	PROB	2.684	n/a	n/a	-999	5	[9, 9, 9]	27.0	FR1	1	R1065J
601.228	2.134	872223	PROB	2.103	n/a	n/a	-999	5	[1, 3, 5]	9.0	FR1	1	R1065J
603.362	2.817	874357	PROB	2.817	n/a	n/a	-999	5	[4, 7, 2]	13.0	FR1	1	R1065J
606.179	0.017	877174	STOP	n/a	n/a	n/a	-999	5	[-999, -999, -999]	n/a	FR1	1	R1065J
606.196	1.168	877191	DISTRACT_END	n/a	n/a	n/a	-999	5	[0, 0, 0]	n/a	FR1	1	R1065J
607.364	4.879	878359	REC_START	n/a	n/a	n/a	-999	5	[0, 0, 0]	n/a	FR1	1	R1065J
612.243	2.229	883238	REC_WORD	4.879	n/a	FLAME	-999	5	[0, 0, 0]	n/a	FR1	1	R1065J
614.472	2.508	885467	REC_WORD	7.108	n/a	STORM	-999	5	[0, 0, 0]	n/a	FR1	1	R1065J
616.98	4.817	887975	REC_WORD	9.616	n/a	SPARK	-999	5	[0, 0, 0]	n/a	FR1	1	R1065J
621.797	15.577	892792	REC_WORD_VV	14.433	n/a	<>	-999	5	[0, 0, 0]	n/a	FR1	1	R1065J
637.374	8.944	908369	REC_END	n/a	n/a	n/a	-999	5	[0, 0, 0]	n/a	FR1	1	R1065J
646.318	0.0	917313	TRIAL	n/a	n/a	n/a	-999	6	[0, 0, 0]	n/a	FR1	1	R1065J
646.318	10.0	917313	COUNTDOWN_START	n/a	n/a	n/a	-999	6	[0, 0, 0]	n/a	FR1	1	R1065J
656.746	0.007	927741	COUNTDOWN_END	n/a	n/a	n/a	-999	6	[0, 0, 0]	n/a	FR1	1	R1065J
656.753	1.6	927748	ORIENT	n/a	n/a	n/a	-999	6	[0, 0, 0]	n/a	FR1	1	R1065J
659.203	1.6	930198	WORD	n/a	wordpools/wordpool_EN.txt	BOWL	1	6	[0, 0, 0]	n/a	FR1	1	R1065J
661.702	1.6	932697	WORD	n/a	wordpools/wordpool_EN.txt	CART	2	6	[0, 0, 0]	n/a	FR1	1	R1065J
664.237	1.6	935232	WORD	n/a	wordpools/wordpool_EN.txt	LOCK	3	6	[0, 0, 0]	n/a	FR1	1	R1065J
666.638	1.6	937633	WORD	n/a	wordpools/wordpool_EN.txt	PEA	4	6	[0, 0, 0]	n/a	FR1	1	R1065J
669.255	1.6	940250	WORD	n/a	wordpools/wordpool_EN.txt	BROOM	5	6	[0, 0, 0]	n/a	FR1	1	R1065J
671.687	1.6	942682	WORD	n/a	wordpools/wordpool_EN.txt	FLOOR	6	6	[0, 0, 0]	n/a	FR1	1	R1065J
674.238	1.6	945233	WORD	n/a	wordpools/wordpool_EN.txt	BENCH	7	6	[0, 0, 0]	n/a	FR1	1	R1065J
676.656	1.6	947651	WORD	n/a	wordpools/wordpool_EN.txt	CHIN	8	6	[0, 0, 0]	n/a	FR1	1	R1065J
679.039	1.6	950034	WORD	n/a	wordpools/wordpool_EN.txt	TEA	9	6	[0, 0, 0]	n/a	FR1	1	R1065J
681.573	1.6	952568	WORD	n/a	wordpools/wordpool_EN.txt	SUIT	10	6	[0, 0, 0]	n/a	FR1	1	R1065J
684.007	1.6	955002	WORD	n/a	wordpools/wordpool_EN.txt	BED	11	6	[0, 0, 0]	n/a	FR1	1	R1065J
686.49	1.6	957485	WORD	n/a	wordpools/wordpool_EN.txt	POOL	12	6	[0, 0, 0]	n/a	FR1	1	R1065J
688.107	0.001	959103	DISTRACT_START	n/a	n/a	n/a	-999	6	[0, 0, 0]	n/a	FR1	1	R1065J
688.108	0.016	959104	START	n/a	n/a	n/a	-999	6	[-999, -999, -999]	n/a	FR1	1	R1065J
688.124	3.599	959120	PROB	3.564	n/a	n/a	-999	6	[2, 3, 4]	9.0	FR1	1	R1065J
691.723	2.852	962719	PROB	2.829	n/a	n/a	-999	6	[3, 9, 5]	17.0	FR1	1	R1065J
694.575	1.834	965571	PROB	1.801	n/a	n/a	-999	6	[1, 6, 3]	10.0	FR1	1	R1065J
696.409	2.5	967405	PROB	2.471	n/a	n/a	-999	6	[3, 4, 3]	10.0	FR1	1	R1065J
698.909	2.883	969905	PROB	2.859	n/a	n/a	-999	6	[5, 5, 4]	14.0	FR1	1	R1065J
701.792	1.967	972788	PROB	1.936	n/a	n/a	-999	6	[8, 4, 1]	13.0	FR1	1	R1065J
703.759	2.217	974755	PROB	2.185	n/a	n/a	-999	6	[2, 9, 7]	18.0	FR1	1	R1065J
705.976	2.084	976972	PROB	2.056	n/a	n/a	-999	6	[1, 9, 2]	12.0	FR1	1	R1065J
708.06	2.524	979056	PROB	2.524	n/a	n/a	-999	6	[4, 7, 7]	18.0	FR1	1	R1065J
710.584	0.01	981580	STOP	n/a	n/a	n/a	-999	6	[-999, -999, -999]	n/a	FR1	1	R1065J
710.594	1.184	981590	DISTRACT_END	n/a	n/a	n/a	-999	6	[0, 0, 0]	n/a	FR1	1	R1065J
711.778	2.574	982774	REC_START	n/a	n/a	n/a	-999	6	[0, 0, 0]	n/a	FR1	1	R1065J
714.352	1.479	985348	REC_WORD	2.574	n/a	BOWL	-999	6	[0, 0, 0]	n/a	FR1	1	R1065J
715.831	1.75	986827	REC_WORD	4.053	n/a	PEA	-999	6	[0, 0, 0]	n/a	FR1	1	R1065J
717.581	2.454	988577	REC_WORD	5.803	n/a	TEA	-999	6	[0, 0, 0]	n/a	FR1	1	R1065J
720.035	2.884	991031	REC_WORD	8.257	n/a	BLOCK	-999	6	[0, 0, 0]	n/a	FR1	1	R1065J
722.919	2.501	993915	REC_WORD	11.141	n/a	BROOM	-999	6	[0, 0, 0]	n/a	FR1	1	R1065J
725.42	2.298	996416	REC_WORD	13.642	n/a	BED	-999	6	[0, 0, 0]	n/a	FR1	1	R1065J
727.718	14.07	998714	REC_WORD	15.94	n/a	POOL	-999	6	[0, 0, 0]	n/a	FR1	1	R1065J
741.788	3.277	1012784	REC_END	n/a	n/a	n/a	-999	6	[0, 0, 0]	n/a	FR1	1	R1065J
745.065	10.0	1016061	COUNTDOWN_START	n/a	n/a	n/a	-999	7	[0, 0, 0]	n/a	FR1	1	R1065J
745.066	10.427	1016062	TRIAL	n/a	n/a	n/a	-999	7	[0, 0, 0]	n/a	FR1	1	R1065J
755.493	0.007	1026489	COUNTDOWN_END	n/a	n/a	n/a	-999	7	[0, 0, 0]	n/a	FR1	1	R1065J
755.5	1.6	1026496	ORIENT	n/a	n/a	n/a	-999	7	[0, 0, 0]	n/a	FR1	1	R1065J
757.967	1.6	1028963	WORD	n/a	wordpools/wordpool_EN.txt	FLEA	1	7	[0, 0, 0]	n/a	FR1	1	R1065J
760.401	1.6	1031397	WORD	n/a	wordpools/wordpool_EN.txt	SNAKE	2	7	[0, 0, 0]	n/a	FR1	1	R1065J
762.934	1.6	1033930	WORD	n/a	wordpools/wordpool_EN.txt	HAWK	3	7	[0, 0, 0]	n/a	FR1	1	R1065J
765.435	1.6	1036431	WORD	n/a	wordpools/wordpool_EN.txt	BEE	4	7	[0, 0, 0]	n/a	FR1	1	R1065J
767.869	1.6	1038865	WORD	n/a	wordpools/wordpool_EN.txt	FORK	5	7	[0, 0, 0]	n/a	FR1	1	R1065J
770.369	1.6	1041365	WORD	n/a	wordpools/wordpool_EN.txt	BRICK	6	7	[0, 0, 0]	n/a	FR1	1	R1065J
772.936	1.6	1043932	WORD	n/a	wordpools/wordpool_EN.txt	SHELL	7	7	[0, 0, 0]	n/a	FR1	1	R1065J
775.336	1.6	1046332	WORD	n/a	wordpools/wordpool_EN.txt	SPONGE	8	7	[0, 0, 0]	n/a	FR1	1	R1065J
777.903	1.6	1048899	WORD	n/a	wordpools/wordpool_EN.txt	CLAY	9	7	[0, 0, 0]	n/a	FR1	1	R1065J
780.354	1.6	1051350	WORD	n/a	wordpools/wordpool_EN.txt	STONE	10	7	[0, 0, 0]	n/a	FR1	1	R1065J
782.871	1.6	1053867	WORD	n/a	wordpools/wordpool_EN.txt	CUBE	11	7	[0, 0, 0]	n/a	FR1	1	R1065J
785.321	1.6	1056318	WORD	n/a	wordpools/wordpool_EN.txt	PEACH	12	7	[0, 0, 0]	n/a	FR1	1	R1065J
786.938	0.0	1057935	DISTRACT_START	n/a	n/a	n/a	-999	7	[0, 0, 0]	n/a	FR1	1	R1065J
786.938	0.017	1057935	START	n/a	n/a	n/a	-999	7	[-999, -999, -999]	n/a	FR1	1	R1065J
786.955	2.749	1057952	PROB	2.722	n/a	n/a	-999	7	[7, 5, 3]	15.0	FR1	1	R1065J
789.704	2.218	1060701	PROB	2.19	n/a	n/a	-999	7	[2, 9, 2]	13.0	FR1	1	R1065J
791.922	1.984	1062919	PROB	1.956	n/a	n/a	-999	7	[6, 4, 9]	19.0	FR1	1	R1065J
793.906	2.782	1064903	PROB	2.748	n/a	n/a	-999	7	[5, 6, 7]	18.0	FR1	1	R1065J
796.688	2.335	1067685	PROB	2.309	n/a	n/a	-999	7	[2, 6, 7]	16.0	FR1	1	R1065J
799.023	2.784	1070020	PROB	2.75	n/a	n/a	-999	7	[5, 1, 8]	14.0	FR1	1	R1065J
801.807	2.767	1072804	PROB	2.742	n/a	n/a	-999	7	[9, 6, 7]	22.0	FR1	1	R1065J
804.574	2.775	1075571	PROB	2.775	n/a	n/a	-999	7	[7, 5, 8]	20.0	FR1	1	R1065J
807.349	0.009	1078346	STOP	n/a	n/a	n/a	-999	7	[-999, -999, -999]	n/a	FR1	1	R1065J
807.358	1.117	1078355	DISTRACT_END	n/a	n/a	n/a	-999	7	[0, 0, 0]	n/a	FR1	1	R1065J
808.475	2.204	1079472	REC_START	n/a	n/a	n/a	-999	7	[0, 0, 0]	n/a	FR1	1	R1065J
810.679	0.435	1081676	REC_WORD_VV	2.204	n/a	<>	-999	7	[0, 0, 0]	n/a	FR1	1	R1065J
811.114	1.466	1082111	REC_WORD	2.639	n/a	BEE	-999	7	[0, 0, 0]	n/a	FR1	1	R1065J
812.58	2.427	1083577	REC_WORD	4.105	n/a	FLEA	-999	7	[0, 0, 0]	n/a	FR1	1	R1065J
815.007	7.132	1086004	REC_WORD	6.532	n/a	CUBE	-999	7	[0, 0, 0]	n/a	FR1	1	R1065J
822.139	16.345	1093136	REC_WORD	13.664	n/a	BRICK	-999	7	[0, 0, 0]	n/a	FR1	1	R1065J
838.484	4.028	1109481	REC_END	n/a	n/a	n/a	-999	7	[0, 0, 0]	n/a	FR1	1	R1065J
842.512	0.0	1113509	TRIAL	n/a	n/a	n/a	-999	8	[0, 0, 0]	n/a	FR1	1	R1065J
842.512	10.0	1113509	COUNTDOWN_START	n/a	n/a	n/a	-999	8	[0, 0, 0]	n/a	FR1	1	R1065J
852.94	0.007	1123937	COUNTDOWN_END	n/a	n/a	n/a	-999	8	[0, 0, 0]	n/a	FR1	1	R1065J
852.947	1.6	1123944	ORIENT	n/a	n/a	n/a	-999	8	[0, 0, 0]	n/a	FR1	1	R1065J
855.514	1.6	1126511	WORD	n/a	wordpools/wordpool_EN.txt	CORN	1	8	[0, 0, 0]	n/a	FR1	1	R1065J
858.115	1.6	1129112	WORD	n/a	wordpools/wordpool_EN.txt	STRAW	2	8	[0, 0, 0]	n/a	FR1	1	R1065J
860.599	1.6	1131596	WORD	n/a	wordpools/wordpool_EN.txt	STEAK	3	8	[0, 0, 0]	n/a	FR1	1	R1065J
862.999	1.6	1133996	WORD	n/a	wordpools/wordpool_EN.txt	STOVE	4	8	[0, 0, 0]	n/a	FR1	1	R1065J
865.599	1.6	1136596	WORD	n/a	wordpools/wordpool_EN.txt	COW	5	8	[0, 0, 0]	n/a	FR1	1	R1065J
868.2	1.6	1139197	WORD	n/a	wordpools/wordpool_EN.txt	PANTS	6	8	[0, 0, 0]	n/a	FR1	1	R1065J
870.682	1.6	1141679	WORD	n/a	wordpools/wordpool_EN.txt	BARN	7	8	[0, 0, 0]	n/a	FR1	1	R1065J
873.15	1.6	1144147	WORD	n/a	wordpools/wordpool_EN.txt	PURSE	8	8	[0, 0, 0]	n/a	FR1	1	R1065J
875.7	1.6	1146697	WORD	n/a	wordpools/wordpool_EN.txt	SEAT	9	8	[0, 0, 0]	n/a	FR1	1	R1065J
878.218	1.6	1149215	WORD	n/a	wordpools/wordpool_EN.txt	GUARD	10	8	[0, 0, 0]	n/a	FR1	1	R1065J
880.684	1.6	1151682	WORD	n/a	wordpools/wordpool_EN.txt	PEN	11	8	[0, 0, 0]	n/a	FR1	1	R1065J
883.118	1.6	1154116	WORD	n/a	wordpools/wordpool_EN.txt	RIB	12	8	[0, 0, 0]	n/a	FR1	1	R1065J
884.735	0.001	1155733	DISTRACT_START	n/a	n/a	n/a	-999	8	[0, 0, 0]	n/a	FR1	1	R1065J
884.736	0.016	1155734	START	n/a	n/a	n/a	-999	8	[-999, -999, -999]	n/a	FR1	1	R1065J
884.752	2.5	1155750	PROB	2.467	n/a	n/a	-999	8	[3, 1, 7]	11.0	FR1	1	R1065J
887.252	2.401	1158250	PROB	2.375	n/a	n/a	-999	8	[9, 4, 5]	18.0	FR1	1	R1065J
889.653	2.35	1160651	PROB	2.326	n/a	n/a	-999	8	[9, 4, 2]	15.0	FR1	1	R1065J
892.003	1.95	1163001	PROB	1.928	n/a	n/a	-999	8	[3, 1, 4]	8.0	FR1	1	R1065J
893.953	6.168	1164951	PROB	6.146	n/a	n/a	-999	8	[1, 6, 9]	16.0	FR1	1	R1065J
900.121	2.35	1171119	PROB	2.314	n/a	n/a	-999	8	[5, 9, 2]	16.0	FR1	1	R1065J
902.471	4.363	1173469	PROB	4.363	n/a	n/a	-999	8	[7, 9, 8]	24.0	FR1	1	R1065J
906.834	0.004	1177832	STOP	n/a	n/a	n/a	-999	8	[-999, -999, -999]	n/a	FR1	1	R1065J
906.838	1.168	1177836	DISTRACT_END	n/a	n/a	n/a	-999	8	[0, 0, 0]	n/a	FR1	1	R1065J
908.006	1.915	1179004	REC_START	n/a	n/a	n/a	-999	8	[0, 0, 0]	n/a	FR1	1	R1065J
909.921	1.714	1180919	REC_WORD	1.915	n/a	COW	-999	8	[0, 0, 0]	n/a	FR1	1	R1065J
911.635	2.309	1182633	REC_WORD	3.629	n/a	BARN	-999	8	[0, 0, 0]	n/a	FR1	1	R1065J
913.944	2.471	1184942	REC_WORD	5.938	n/a	STEAK	-999	8	[0, 0, 0]	n/a	FR1	1	R1065J
916.415	3.084	1187413	REC_WORD	8.409	n/a	RIB	-999	8	[0, 0, 0]	n/a	FR1	1	R1065J
919.499	18.519	1190497	REC_WORD	11.493	n/a	CORN	-999	8	[0, 0, 0]	n/a	FR1	1	R1065J
938.018	4.309	1209016	REC_END	n/a	n/a	n/a	-999	8	[0, 0, 0]	n/a	FR1	1	R1065J
942.327	0.0	1213325	TRIAL	n/a	n/a	n/a	-999	9	[0, 0, 0]	n/a	FR1	1	R1065J
942.327	10.0	1213325	COUNTDOWN_START	n/a	n/a	n/a	-999	9	[0, 0, 0]	n/a	FR1	1	R1065J
952.755	0.007	1223753	COUNTDOWN_END	n/a	n/a	n/a	-999	9	[0, 0, 0]	n/a	FR1	1	R1065J
952.762	1.6	1223760	ORIENT	n/a	n/a	n/a	-999	9	[0, 0, 0]	n/a	FR1	1	R1065J
955.279	1.6	1226277	WORD	n/a	wordpools/wordpool_EN.txt	SUN	1	9	[0, 0, 0]	n/a	FR1	1	R1065J
957.796	1.6	1228794	WORD	n/a	wordpools/wordpool_EN.txt	ROOM	2	9	[0, 0, 0]	n/a	FR1	1	R1065J
960.363	1.6	1231361	WORD	n/a	wordpools/wordpool_EN.txt	BADGE	3	9	[0, 0, 0]	n/a	FR1	1	R1065J
962.796	1.6	1233794	WORD	n/a	wordpools/wordpool_EN.txt	BOX	4	9	[0, 0, 0]	n/a	FR1	1	R1065J
965.18	1.6	1236178	WORD	n/a	wordpools/wordpool_EN.txt	SOAP	5	9	[0, 0, 0]	n/a	FR1	1	R1065J
967.564	1.6	1238562	WORD	n/a	wordpools/wordpool_EN.txt	FOAM	6	9	[0, 0, 0]	n/a	FR1	1	R1065J
970.114	1.6	1241112	WORD	n/a	wordpools/wordpool_EN.txt	SHIRT	7	9	[0, 0, 0]	n/a	FR1	1	R1065J
972.581	1.6	1243579	WORD	n/a	wordpools/wordpool_EN.txt	BAG	8	9	[0, 0, 0]	n/a	FR1	1	R1065J
975.198	1.6	1246196	WORD	n/a	wordpools/wordpool_EN.txt	CROWN	9	9	[0, 0, 0]	n/a	FR1	1	R1065J
977.648	1.6	1248647	WORD	n/a	wordpools/wordpool_EN.txt	STRING	10	9	[0, 0, 0]	n/a	FR1	1	R1065J
980.182	1.6	1251181	WORD	n/a	wordpools/wordpool_EN.txt	FAN	11	9	[0, 0, 0]	n/a	FR1	1	R1065J
982.799	1.6	1253798	WORD	n/a	wordpools/wordpool_EN.txt	WHALE	12	9	[0, 0, 0]	n/a	FR1	1	R1065J
984.416	0.001	1255415	DISTRACT_START	n/a	n/a	n/a	-999	9	[0, 0, 0]	n/a	FR1	1	R1065J
984.417	0.016	1255416	START	n/a	n/a	n/a	-999	9	[-999, -999, -999]	n/a	FR1	1	R1065J
984.433	2.933	1255432	PROB	2.911	n/a	n/a	-999	9	[3, 6, 2]	11.0	FR1	1	R1065J
987.366	1.851	1258365	PROB	1.819	n/a	n/a	-999	9	[2, 4, 1]	7.0	FR1	1	R1065J
989.217	2.1	1260216	PROB	2.071	n/a	n/a	-999	9	[3, 6, 9]	18.0	FR1	1	R1065J
991.317	1.984	1262316	PROB	1.948	n/a	n/a	-999	9	[1, 8, 4]	13.0	FR1	1	R1065J
993.301	2.25	1264300	PROB	2.219	n/a	n/a	-999	9	[9, 1, 6]	16.0	FR1	1	R1065J
995.551	2.3	1266550	PROB	2.274	n/a	n/a	-999	9	[4, 2, 7]	13.0	FR1	1	R1065J
997.851	3.734	1268850	PROB	3.701	n/a	n/a	-999	9	[8, 4, 9]	21.0	FR1	1	R1065J
1001.585	2.784	1272584	PROB	2.751	n/a	n/a	-999	9	[4, 2, 9]	15.0	FR1	1	R1065J
1004.369	1.839	1275368	PROB	1.839	n/a	n/a	-999	9	[8, 3, 1]	9.0	FR1	1	R1065J
1006.208	0.011	1277207	STOP	n/a	n/a	n/a	-999	9	[-999, -999, -999]	n/a	FR1	1	R1065J
1006.219	1.051	1277218	DISTRACT_END	n/a	n/a	n/a	-999	9	[0, 0, 0]	n/a	FR1	1	R1065J
1007.27	2.76	1278269	REC_START	n/a	n/a	n/a	-999	9	[0, 0, 0]	n/a	FR1	1	R1065J
1010.03	2.026	1281029	REC_WORD	2.76	n/a	SUN	-999	9	[0, 0, 0]	n/a	FR1	1	R1065J
1012.056	0.794	1283055	REC_WORD	4.786	n/a	ROOM	-999	9	[0, 0, 0]	n/a	FR1	1	R1065J
1012.85	2.975	1283849	REC_WORD	5.58	n/a	FAN	-999	9	[0, 0, 0]	n/a	FR1	1	R1065J
1015.825	3.376	1286824	REC_WORD	8.555	n/a	SHIRT	-999	9	[0, 0, 0]	n/a	FR1	1	R1065J
1019.201	10.493	1290200	REC_WORD	11.931	n/a	BOX	-999	9	[0, 0, 0]	n/a	FR1	1	R1065J
1029.694	7.588	1300693	REC_WORD	22.424	n/a	BADGE	-999	9	[0, 0, 0]	n/a	FR1	1	R1065J
1037.282	11.943	1308281	REC_END	n/a	n/a	n/a	-999	9	[0, 0, 0]	n/a	FR1	1	R1065J
1049.225	10.0	1320224	COUNTDOWN_START	n/a	n/a	n/a	-999	10	[0, 0, 0]	n/a	FR1	1	R1065J
1049.226	10.427	1320225	TRIAL	n/a	n/a	n/a	-999	10	[0, 0, 0]	n/a	FR1	1	R1065J
1059.653	0.006	1330652	COUNTDOWN_END	n/a	n/a	n/a	-999	10	[0, 0, 0]	n/a	FR1	1	R1065J
1059.659	1.6	1330658	ORIENT	n/a	n/a	n/a	-999	10	[0, 0, 0]	n/a	FR1	1	R1065J
1062.044	1.6	1333043	WORD	n/a	wordpools/wordpool_EN.txt	ROAD	1	10	[0, 0, 0]	n/a	FR1	1	R1065J
1064.561	1.6	1335560	WORD	n/a	wordpools/wordpool_EN.txt	DOG	2	10	[0, 0, 0]	n/a	FR1	1	R1065J
1066.994	1.6	1337993	WORD	n/a	wordpools/wordpool_EN.txt	SKUNK	3	10	[0, 0, 0]	n/a	FR1	1	R1065J
1069.495	1.6	1340494	WORD	n/a	wordpools/wordpool_EN.txt	FOG	4	10	[0, 0, 0]	n/a	FR1	1	R1065J
1072.095	1.6	1343095	WORD	n/a	wordpools/wordpool_EN.txt	HEN	5	10	[0, 0, 0]	n/a	FR1	1	R1065J
1074.695	1.6	1345695	WORD	n/a	wordpools/wordpool_EN.txt	LAMB	6	10	[0, 0, 0]	n/a	FR1	1	R1065J
1077.213	1.6	1348213	WORD	n/a	wordpools/wordpool_EN.txt	FARM	7	10	[0, 0, 0]	n/a	FR1	1	R1065J
1079.712	1.6	1350712	WORD	n/a	wordpools/wordpool_EN.txt	EEL	8	10	[0, 0, 0]	n/a	FR1	1	R1065J
1082.096	1.6	1353096	WORD	n/a	wordpools/wordpool_EN.txt	CALF	9	10	[0, 0, 0]	n/a	FR1	1	R1065J
1084.614	1.6	1355614	WORD	n/a	wordpools/wordpool_EN.txt	TRUCK	10	10	[0, 0, 0]	n/a	FR1	1	R1065J
1087.131	1.6	1358131	WORD	n/a	wordpools/wordpool_EN.txt	VAN	11	10	[0, 0, 0]	n/a	FR1	1	R1065J
1089.731	1.6	1360731	WORD	n/a	wordpools/wordpool_EN.txt	BRIDGE	12	10	[0, 0, 0]	n/a	FR1	1	R1065J
1091.348	0.001	1362348	DISTRACT_START	n/a	n/a	n/a	-999	10	[0, 0, 0]	n/a	FR1	1	R1065J
1091.349	0.015	1362349	START	n/a	n/a	n/a	-999	10	[-999, -999, -999]	n/a	FR1	1	R1065J
1091.364	2.418	1362364	PROB	2.393	n/a	n/a	-999	10	[1, 1, 7]	9.0	FR1	1	R1065J
1093.782	1.95	1364782	PROB	1.926	n/a	n/a	-999	10	[2, 6, 6]	14.0	FR1	1	R1065J
1095.732	3.317	1366732	PROB	3.29	n/a	n/a	-999	10	[5, 8, 7]	20.0	FR1	1	R1065J
1099.049	2.034	1370049	PROB	2.005	n/a	n/a	-999	10	[8, 9, 1]	18.0	FR1	1	R1065J
1101.083	1.683	1372083	PROB	1.65	n/a	n/a	-999	10	[3, 3, 1]	7.0	FR1	1	R1065J
1102.766	2.584	1373766	PROB	2.559	n/a	n/a	-999	10	[7, 6, 3]	16.0	FR1	1	R1065J
1105.35	3.6	1376350	PROB	3.568	n/a	n/a	-999	10	[9, 7, 6]	24.0	FR1	1	R1065J
1108.95	2.407	1379950	PROB	2.407	n/a	n/a	-999	10	[8, 9, 1]	18.0	FR1	1	R1065J
1111.357	0.01	1382357	STOP	n/a	n/a	n/a	-999	10	[-999, -999, -999]	n/a	FR1	1	R1065J
1111.367	1.068	1382367	DISTRACT_END	n/a	n/a	n/a	-999	10	[0, 0, 0]	n/a	FR1	1	R1065J
1112.435	2.305	1383435	REC_START	n/a	n/a	n/a	-999	10	[0, 0, 0]	n/a	FR1	1	R1065J
1114.74	2.013	1385740	REC_WORD	2.305	n/a	FARM	-999	10	[0, 0, 0]	n/a	FR1	1	R1065J
1116.753	2.007	1387753	REC_WORD	4.318	n/a	TRUCK	-999	10	[0, 0, 0]	n/a	FR1	1	R1065J
1118.76	3.301	1389760	REC_WORD	6.325	n/a	VAN	-999	10	[0, 0, 0]	n/a	FR1	1	R1065J
1122.061	20.386	1393061	REC_WORD	9.626	n/a	LAMB	-999	10	[0, 0, 0]	n/a	FR1	1	R1065J
1142.447	3.142	1413447	REC_END	n/a	n/a	n/a	-999	10	[0, 0, 0]	n/a	FR1	1	R1065J
1145.589	0.0	1416589	TRIAL	n/a	n/a	n/a	-999	11	[0, 0, 0]	n/a	FR1	1	R1065J
1145.589	10.0	1416589	COUNTDOWN_START	n/a	n/a	n/a	-999	11	[0, 0, 0]	n/a	FR1	1	R1065J
1156.017	0.007	1427017	COUNTDOWN_END	n/a	n/a	n/a	-999	11	[0, 0, 0]	n/a	FR1	1	R1065J
1156.024	1.6	1427024	ORIENT	n/a	n/a	n/a	-999	11	[0, 0, 0]	n/a	FR1	1	R1065J
1158.491	1.6	1429491	WORD	n/a	wordpools/wordpool_EN.txt	GRASS	1	11	[0, 0, 0]	n/a	FR1	1	R1065J
1161.008	1.6	1432008	WORD	n/a	wordpools/wordpool_EN.txt	MOON	2	11	[0, 0, 0]	n/a	FR1	1	R1065J
1163.391	1.6	1434391	WORD	n/a	wordpools/wordpool_EN.txt	SLUSH	3	11	[0, 0, 0]	n/a	FR1	1	R1065J
1165.908	1.6	1436908	WORD	n/a	wordpools/wordpool_EN.txt	NEST	4	11	[0, 0, 0]	n/a	FR1	1	R1065J
1168.326	1.6	1439327	WORD	n/a	wordpools/wordpool_EN.txt	BALL	5	11	[0, 0, 0]	n/a	FR1	1	R1065J
1170.776	1.6	1441777	WORD	n/a	wordpools/wordpool_EN.txt	GOAT	6	11	[0, 0, 0]	n/a	FR1	1	R1065J
1173.393	1.6	1444394	WORD	n/a	wordpools/wordpool_EN.txt	BIRD	7	11	[0, 0, 0]	n/a	FR1	1	R1065J
1175.977	1.6	1446978	WORD	n/a	wordpools/wordpool_EN.txt	VINE	8	11	[0, 0, 0]	n/a	FR1	1	R1065J
1178.477	1.6	1449478	WORD	n/a	wordpools/wordpool_EN.txt	PRINCE	9	11	[0, 0, 0]	n/a	FR1	1	R1065J
1181.061	1.6	1452062	WORD	n/a	wordpools/wordpool_EN.txt	BAT	10	11	[0, 0, 0]	n/a	FR1	1	R1065J
1183.561	1.6	1454562	WORD	n/a	wordpools/wordpool_EN.txt	CAT	11	11	[0, 0, 0]	n/a	FR1	1	R1065J
1185.994	1.6	1456995	WORD	n/a	wordpools/wordpool_EN.txt	NET	12	11	[0, 0, 0]	n/a	FR1	1	R1065J
1187.612	0.001	1458613	DISTRACT_START	n/a	n/a	n/a	-999	11	[0, 0, 0]	n/a	FR1	1	R1065J
1187.613	0.015	1458614	START	n/a	n/a	n/a	-999	11	[-999, -999, -999]	n/a	FR1	1	R1065J
1187.628	2.767	1458629	PROB	2.743	n/a	n/a	-999	11	[7, 7, 3]	17.0	FR1	1	R1065J
1190.395	5.484	1461396	PROB	5.464	n/a	n/a	-999	11	[7, 7, 9]	25.0	FR1	1	R1065J
1195.879	2.467	1466880	PROB	2.444	n/a	n/a	-999	11	[7, 9, 9]	25.0	FR1	1	R1065J
1198.346	1.867	1469347	PROB	1.841	n/a	n/a	-999	11	[7, 7, 1]	15.0	FR1	1	R1065J
1200.213	1.884	1471214	PROB	1.853	n/a	n/a	-999	11	[9, 1, 2]	12.0	FR1	1	R1065J
1202.097	2.167	1473098	PROB	2.146	n/a	n/a	-999	11	[9, 8, 6]	23.0	FR1	1	R1065J
1204.264	2.05	1475265	PROB	2.026	n/a	n/a	-999	11	[5, 7, 7]	19.0	FR1	1	R1065J
1206.314	2.913	1477315	PROB	2.913	n/a	n/a	-999	11	[8, 6, 3]	17.0	FR1	1	R1065J
1209.227	0.004	1480228	STOP	n/a	n/a	n/a	-999	11	[-999, -999, -999]	n/a	FR1	1	R1065J
1209.231	1.168	1480232	DISTRACT_END	n/a	n/a	n/a	-999	11	[0, 0, 0]	n/a	FR1	1	R1065J
1210.399	2.745	1481400	REC_START	n/a	n/a	n/a	-999	11	[0, 0, 0]	n/a	FR1	1	R1065J
1213.144	4.152	1484145	REC_WORD	2.745	n/a	NEST	-999	11	[0, 0, 0]	n/a	FR1	1	R1065J
1217.296	1.385	1488297	REC_WORD	6.897	n/a	MOON	-999	11	[0, 0, 0]	n/a	FR1	1	R1065J
1218.681	4.566	1489682	REC_WORD	8.282	n/a	GRASS	-999	11	[0, 0, 0]	n/a	FR1	1	R1065J
1223.247	17.164	1494248	REC_WORD	12.848	n/a	BIRD	-999	11	[0, 0, 0]	n/a	FR1	1	R1065J
1240.411	5.792	1511412	REC_END	n/a	n/a	n/a	-999	11	[0, 0, 0]	n/a	FR1	1	R1065J
1246.203	0.0	1517204	TRIAL	n/a	n/a	n/a	-999	12	[0, 0, 0]	n/a	FR1	1	R1065J
1246.203	10.0	1517204	COUNTDOWN_START	n/a	n/a	n/a	-999	12	[0, 0, 0]	n/a	FR1	1	R1065J
1256.631	0.007	1527632	COUNTDOWN_END	n/a	n/a	n/a	-999	12	[0, 0, 0]	n/a	FR1	1	R1065J
1256.638	1.6	1527639	ORIENT	n/a	n/a	n/a	-999	12	[0, 0, 0]	n/a	FR1	1	R1065J
1259.155	1.6	1530156	WORD	n/a	wordpools/wordpool_EN.txt	JET	1	12	[0, 0, 0]	n/a	FR1	1	R1065J
1261.639	1.6	1532640	WORD	n/a	wordpools/wordpool_EN.txt	PLANE	2	12	[0, 0, 0]	n/a	FR1	1	R1065J
1264.056	1.6	1535058	WORD	n/a	wordpools/wordpool_EN.txt	OAR	3	12	[0, 0, 0]	n/a	FR1	1	R1065J
1266.539	1.6	1537541	WORD	n/a	wordpools/wordpool_EN.txt	SHEET	4	12	[0, 0, 0]	n/a	FR1	1	R1065J
1269.14	1.6	1540142	WORD	n/a	wordpools/wordpool_EN.txt	TRAIN	5	12	[0, 0, 0]	n/a	FR1	1	R1065J
1271.74	1.6	1542742	WORD	n/a	wordpools/wordpool_EN.txt	PEARL	6	12	[0, 0, 0]	n/a	FR1	1	R1065J
1274.274	1.6	1545276	WORD	n/a	wordpools/wordpool_EN.txt	BANK	7	12	[0, 0, 0]	n/a	FR1	1	R1065J
1276.874	1.6	1547876	WORD	n/a	wordpools/wordpool_EN.txt	STEAM	8	12	[0, 0, 0]	n/a	FR1	1	R1065J
1279.341	1.6	1550343	WORD	n/a	wordpools/wordpool_EN.txt	STORE	9	12	[0, 0, 0]	n/a	FR1	1	R1065J
1281.941	1.6	1552943	WORD	n/a	wordpools/wordpool_EN.txt	MAIL	10	12	[0, 0, 0]	n/a	FR1	1	R1065J
1284.525	1.6	1555527	WORD	n/a	wordpools/wordpool_EN.txt	CASH	11	12	[0, 0, 0]	n/a	FR1	1	R1065J
1287.142	1.6	1558144	WORD	n/a	wordpools/wordpool_EN.txt	SCHOOL	12	12	[0, 0, 0]	n/a	FR1	1	R1065J
1288.759	0.001	1559761	DISTRACT_START	n/a	n/a	n/a	-999	12	[0, 0, 0]	n/a	FR1	1	R1065J
1288.76	0.016	1559762	START	n/a	n/a	n/a	-999	12	[-999, -999, -999]	n/a	FR1	1	R1065J
1288.776	2.867	1559778	PROB	2.832	n/a	n/a	-999	12	[3, 7, 5]	15.0	FR1	1	R1065J
1291.643	2.6	1562645	PROB	2.573	n/a	n/a	-999	12	[1, 8, 9]	18.0	FR1	1	R1065J
1294.243	2.101	1565245	PROB	2.069	n/a	n/a	-999	12	[1, 6, 8]	15.0	FR1	1	R1065J
1296.344	2.0	1567346	PROB	1.976	n/a	n/a	-999	12	[5, 7, 1]	13.0	FR1	1	R1065J
1298.344	3.184	1569346	PROB	3.152	n/a	n/a	-999	12	[9, 2, 5]	16.0	FR1	1	R1065J
1301.528	2.7	1572530	PROB	2.664	n/a	n/a	-999	12	[1, 7, 2]	10.0	FR1	1	R1065J
1304.228	3.717	1575230	PROB	3.692	n/a	n/a	-999	12	[9, 8, 9]	26.0	FR1	1	R1065J
1307.945	1.967	1578947	PROB	1.967	n/a	n/a	-999	12	[7, 1, 3]	11.0	FR1	1	R1065J
1309.912	0.017	1580914	STOP	n/a	n/a	n/a	-999	12	[-999, -999, -999]	n/a	FR1	1	R1065J
1309.929	1.034	1580931	DISTRACT_END	n/a	n/a	n/a	-999	12	[0, 0, 0]	n/a	FR1	1	R1065J
1310.963	1.673	1581965	REC_START	n/a	n/a	n/a	-999	12	[0, 0, 0]	n/a	FR1	1	R1065J
1312.636	3.627	1583638	REC_WORD	1.673	n/a	SCHOOL	-999	12	[0, 0, 0]	n/a	FR1	1	R1065J
1316.263	0.715	1587265	REC_WORD_VV	5.3	n/a	<>	-999	12	[0, 0, 0]	n/a	FR1	1	R1065J
1316.978	4.66	1587980	REC_WORD_VV	6.015	n/a	<>	-999	12	[0, 0, 0]	n/a	FR1	1	R1065J
1321.638	1.573	1592640	REC_WORD	10.675	n/a	JET	-999	12	[0, 0, 0]	n/a	FR1	1	R1065J
1323.211	2.043	1594213	REC_WORD	12.248	n/a	STEAM	-999	12	[0, 0, 0]	n/a	FR1	1	R1065J
1325.254	5.357	1596256	REC_WORD	14.291	n/a	PLANE	-999	12	[0, 0, 0]	n/a	FR1	1	R1065J
1330.611	1.865	1601613	REC_WORD	19.648	n/a	CASH	-999	12	[0, 0, 0]	n/a	FR1	1	R1065J
1332.476	8.504	1603478	REC_WORD	21.513	n/a	MAIL	-999	12	[0, 0, 0]	n/a	FR1	1	R1065J
1340.98	3.87	1611982	REC_END	n/a	n/a	n/a	-999	12	[0, 0, 0]	n/a	FR1	1	R1065J
1344.85	0.0	1615852	TRIAL	n/a	n/a	n/a	-999	13	[0, 0, 0]	n/a	FR1	1	R1065J
1344.85	10.0	1615852	COUNTDOWN_START	n/a	n/a	n/a	-999	13	[0, 0, 0]	n/a	FR1	1	R1065J
1355.278	0.007	1626280	COUNTDOWN_END	n/a	n/a	n/a	-999	13	[0, 0, 0]	n/a	FR1	1	R1065J
1355.285	1.6	1626287	ORIENT	n/a	n/a	n/a	-999	13	[0, 0, 0]	n/a	FR1	1	R1065J
1357.718	1.6	1628720	WORD	n/a	wordpools/wordpool_EN.txt	WOLF	1	13	[0, 0, 0]	n/a	FR1	1	R1065J
1360.269	1.6	1631272	WORD	n/a	wordpools/wordpool_EN.txt	SPOON	2	13	[0, 0, 0]	n/a	FR1	1	R1065J
1362.803	1.6	1633806	WORD	n/a	wordpools/wordpool_EN.txt	FOOD	3	13	[0, 0, 0]	n/a	FR1	1	R1065J
1365.37	1.6	1636373	WORD	n/a	wordpools/wordpool_EN.txt	KITE	4	13	[0, 0, 0]	n/a	FR1	1	R1065J
1367.871	1.6	1638874	WORD	n/a	wordpools/wordpool_EN.txt	PIG	5	13	[0, 0, 0]	n/a	FR1	1	R1065J
1370.354	1.6	1641357	WORD	n/a	wordpools/wordpool_EN.txt	WOOD	6	13	[0, 0, 0]	n/a	FR1	1	R1065J
1372.971	1.6	1643974	WORD	n/a	wordpools/wordpool_EN.txt	PET	7	13	[0, 0, 0]	n/a	FR1	1	R1065J
1375.555	1.6	1646558	WORD	n/a	wordpools/wordpool_EN.txt	BRANCH	8	13	[0, 0, 0]	n/a	FR1	1	R1065J
1378.155	1.6	1649158	WORD	n/a	wordpools/wordpool_EN.txt	BEAR	9	13	[0, 0, 0]	n/a	FR1	1	R1065J
1380.606	1.6	1651609	WORD	n/a	wordpools/wordpool_EN.txt	FRUIT	10	13	[0, 0, 0]	n/a	FR1	1	R1065J
1383.022	1.6	1654025	WORD	n/a	wordpools/wordpool_EN.txt	TREE	11	13	[0, 0, 0]	n/a	FR1	1	R1065J
1385.456	1.6	1656459	WORD	n/a	wordpools/wordpool_EN.txt	CHIEF	12	13	[0, 0, 0]	n/a	FR1	1	R1065J
1387.073	0.001	1658076	DISTRACT_START	n/a	n/a	n/a	-999	13	[0, 0, 0]	n/a	FR1	1	R1065J
1387.074	0.016	1658077	START	n/a	n/a	n/a	-999	13	[-999, -999, -999]	n/a	FR1	1	R1065J
1387.09	2.767	1658093	PROB	2.739	n/a	n/a	-999	13	[3, 1, 8]	12.0	FR1	1	R1065J
1389.857	2.433	1660860	PROB	2.397	n/a	n/a	-999	13	[9, 4, 4]	17.0	FR1	1	R1065J
1392.29	1.784	1663293	PROB	1.764	n/a	n/a	-999	13	[2, 6, 1]	9.0	FR1	1	R1065J
1394.074	2.084	1665077	PROB	2.051	n/a	n/a	-999	13	[5, 8, 5]	18.0	FR1	1	R1065J
1396.158	2.434	1667161	PROB	2.408	n/a	n/a	-999	13	[8, 3, 6]	20.0	FR1	1	R1065J
1398.592	2.433	1669595	PROB	2.398	n/a	n/a	-999	13	[5, 2, 3]	10.0	FR1	1	R1065J
1401.025	3.417	1672028	PROB	3.396	n/a	n/a	-999	13	[4, 5, 5]	14.0	FR1	1	R1065J
1404.442	1.734	1675445	PROB	1.707	n/a	n/a	-999	13	[6, 1, 1]	8.0	FR1	1	R1065J
1406.176	4.117	1677179	PROB	4.117	n/a	n/a	-999	13	[9, 5, 9]	24.0	FR1	1	R1065J
1410.293	0.017	1681296	STOP	n/a	n/a	n/a	-999	13	[-999, -999, -999]	n/a	FR1	1	R1065J
1410.31	1.134	1681313	DISTRACT_END	n/a	n/a	n/a	-999	13	[0, 0, 0]	n/a	FR1	1	R1065J
1411.444	4.383	1682447	REC_START	n/a	n/a	n/a	-999	13	[0, 0, 0]	n/a	FR1	1	R1065J
1415.827	25.629	1686830	REC_WORD	4.383	n/a	SPOON	-999	13	[0, 0, 0]	n/a	FR1	1	R1065J
1441.456	6.342	1712459	REC_END	n/a	n/a	n/a	-999	13	[0, 0, 0]	n/a	FR1	1	R1065J
1447.798	10.0	1718801	COUNTDOWN_START	n/a	n/a	n/a	-999	14	[0, 0, 0]	n/a	FR1	1	R1065J
1447.799	10.427	1718802	TRIAL	n/a	n/a	n/a	-999	14	[0, 0, 0]	n/a	FR1	1	R1065J
1458.226	0.007	1729230	COUNTDOWN_END	n/a	n/a	n/a	-999	14	[0, 0, 0]	n/a	FR1	1	R1065J
1458.233	1.6	1729237	ORIENT	n/a	n/a	n/a	-999	14	[0, 0, 0]	n/a	FR1	1	R1065J
1460.65	1.6	1731654	WORD	n/a	wordpools/wordpool_EN.txt	DUCK	1	14	[0, 0, 0]	n/a	FR1	1	R1065J
1463.117	1.6	1734121	WORD	n/a	wordpools/wordpool_EN.txt	MUG	2	14	[0, 0, 0]	n/a	FR1	1	R1065J
1465.551	1.6	1736555	WORD	n/a	wordpools/wordpool_EN.txt	PIPE	3	14	[0, 0, 0]	n/a	FR1	1	R1065J
1467.985	1.6	1738989	WORD	n/a	wordpools/wordpool_EN.txt	APE	4	14	[0, 0, 0]	n/a	FR1	1	R1065J
1470.385	1.6	1741389	WORD	n/a	wordpools/wordpool_EN.txt	WORM	5	14	[0, 0, 0]	n/a	FR1	1	R1065J
1472.935	1.6	1743939	WORD	n/a	wordpools/wordpool_EN.txt	PLATE	6	14	[0, 0, 0]	n/a	FR1	1	R1065J
1475.452	1.6	1746456	WORD	n/a	wordpools/wordpool_EN.txt	WEB	7	14	[0, 0, 0]	n/a	FR1	1	R1065J
1477.836	1.6	1748840	WORD	n/a	wordpools/wordpool_EN.txt	DEER	8	14	[0, 0, 0]	n/a	FR1	1	R1065J
1480.42	1.6	1751424	WORD	n/a	wordpools/wordpool_EN.txt	BEAN	9	14	[0, 0, 0]	n/a	FR1	1	R1065J
1482.903	1.6	1753907	WORD	n/a	wordpools/wordpool_EN.txt	MOTH	10	14	[0, 0, 0]	n/a	FR1	1	R1065J
1485.387	1.6	1756391	WORD	n/a	wordpools/wordpool_EN.txt	SEED	11	14	[0, 0, 0]	n/a	FR1	1	R1065J
1487.954	1.6	1758958	WORD	n/a	wordpools/wordpool_EN.txt	MAT	12	14	[0, 0, 0]	n/a	FR1	1	R1065J
1489.571	0.001	1760575	DISTRACT_START	n/a	n/a	n/a	-999	14	[0, 0, 0]	n/a	FR1	1	R1065J
1489.572	0.016	1760576	START	n/a	n/a	n/a	-999	14	[-999, -999, -999]	n/a	FR1	1	R1065J
1489.588	3.183	1760592	PROB	3.151	n/a	n/a	-999	14	[5, 9, 4]	18.0	FR1	1	R1065J
1492.771	3.184	1763775	PROB	3.16	n/a	n/a	-999	14	[7, 7, 2]	16.0	FR1	1	R1065J
1495.955	2.451	1766959	PROB	2.424	n/a	n/a	-999	14	[4, 2, 9]	15.0	FR1	1	R1065J
1498.406	2.4	1769410	PROB	2.365	n/a	n/a	-999	14	[3, 2, 4]	9.0	FR1	1	R1065J
1500.806	2.117	1771810	PROB	2.085	n/a	n/a	-999	14	[6, 5, 6]	17.0	FR1	1	R1065J
1502.923	2.3	1773927	PROB	2.272	n/a	n/a	-999	14	[1, 2, 3]	6.0	FR1	1	R1065J
1505.223	2.317	1776227	PROB	2.284	n/a	n/a	-999	14	[8, 9, 4]	21.0	FR1	1	R1065J
1507.54	3.271	1778544	PROB	3.271	n/a	n/a	-999	14	[8, 9, 4]	21.0	FR1	1	R1065J
1510.811	0.013	1781815	STOP	n/a	n/a	n/a	-999	14	[-999, -999, -999]	n/a	FR1	1	R1065J
1510.824	1.084	1781828	DISTRACT_END	n/a	n/a	n/a	-999	14	[0, 0, 0]	n/a	FR1	1	R1065J
1511.908	3.462	1782912	REC_START	n/a	n/a	n/a	-999	14	[0, 0, 0]	n/a	FR1	1	R1065J
1515.37	1.849	1786374	REC_WORD	3.462	n/a	MOTH	-999	14	[0, 0, 0]	n/a	FR1	1	R1065J
1517.219	1.135	1788223	REC_WORD	5.311	n/a	BEAN	-999	14	[0, 0, 0]	n/a	FR1	1	R1065J
1518.354	5.663	1789358	REC_WORD	6.446	n/a	SEED	-999	14	[0, 0, 0]	n/a	FR1	1	R1065J
1524.017	1.67	1795021	REC_WORD	12.109	n/a	DUCK	-999	14	[0, 0, 0]	n/a	FR1	1	R1065J
1525.687	8.023	1796691	REC_WORD	13.779	n/a	WORM	-999	14	[0, 0, 0]	n/a	FR1	1	R1065J
1533.71	8.21	1804714	REC_WORD	21.802	n/a	PLATE	-999	14	[0, 0, 0]	n/a	FR1	1	R1065J
1541.92	3.876	1812924	REC_END	n/a	n/a	n/a	-999	14	[0, 0, 0]	n/a	FR1	1	R1065J
1545.796	10.0	1816800	COUNTDOWN_START	n/a	n/a	n/a	-999	15	[0, 0, 0]	n/a	FR1	1	R1065J
1545.796	10.428	1816800	TRIAL	n/a	n/a	n/a	-999	15	[0, 0, 0]	n/a	FR1	1	R1065J
1556.224	0.006	1827229	COUNTDOWN_END	n/a	n/a	n/a	-999	15	[0, 0, 0]	n/a	FR1	1	R1065J
1556.23	1.6	1827235	ORIENT	n/a	n/a	n/a	-999	15	[0, 0, 0]	n/a	FR1	1	R1065J
1558.764	1.6	1829769	WORD	n/a	wordpools/wordpool_EN.txt	MULE	1	15	[0, 0, 0]	n/a	FR1	1	R1065J
1561.381	1.6	1832386	WORD	n/a	wordpools/wordpool_EN.txt	HORSE	2	15	[0, 0, 0]	n/a	FR1	1	R1065J
1563.915	1.6	1834920	WORD	n/a	wordpools/wordpool_EN.txt	SLIME	3	15	[0, 0, 0]	n/a	FR1	1	R1065J
1566.415	1.6	1837420	WORD	n/a	wordpools/wordpool_EN.txt	STAIR	4	15	[0, 0, 0]	n/a	FR1	1	R1065J
1568.949	1.6	1839954	WORD	n/a	wordpools/wordpool_EN.txt	MILK	5	15	[0, 0, 0]	n/a	FR1	1	R1065J
1571.516	1.6	1842521	WORD	n/a	wordpools/wordpool_EN.txt	CLOUD	6	15	[0, 0, 0]	n/a	FR1	1	R1065J
1573.966	1.6	1844971	WORD	n/a	wordpools/wordpool_EN.txt	NAIL	7	15	[0, 0, 0]	n/a	FR1	1	R1065J
1576.483	1.6	1847488	WORD	n/a	wordpools/wordpool_EN.txt	RAIN	8	15	[0, 0, 0]	n/a	FR1	1	R1065J
1578.917	1.6	1849922	WORD	n/a	wordpools/wordpool_EN.txt	CUP	9	15	[0, 0, 0]	n/a	FR1	1	R1065J
1581.434	1.6	1852439	WORD	n/a	wordpools/wordpool_EN.txt	RICE	10	15	[0, 0, 0]	n/a	FR1	1	R1065J
1583.918	1.6	1854923	WORD	n/a	wordpools/wordpool_EN.txt	FOOT	11	15	[0, 0, 0]	n/a	FR1	1	R1065J
1586.335	1.6	1857340	WORD	n/a	wordpools/wordpool_EN.txt	SALT	12	15	[0, 0, 0]	n/a	FR1	1	R1065J
1587.952	0.001	1858957	DISTRACT_START	n/a	n/a	n/a	-999	15	[0, 0, 0]	n/a	FR1	1	R1065J
1587.953	0.015	1858958	START	n/a	n/a	n/a	-999	15	[-999, -999, -999]	n/a	FR1	1	R1065J
1587.968	4.351	1858973	PROB	4.32	n/a	n/a	-999	15	[5, 6, 3]	14.0	FR1	1	R1065J
1592.319	2.05	1863324	PROB	2.025	n/a	n/a	-999	15	[4, 2, 2]	8.0	FR1	1	R1065J
1594.369	2.084	1865374	PROB	2.048	n/a	n/a	-999	15	[9, 4, 4]	17.0	FR1	1	R1065J
1596.453	1.85	1867458	PROB	1.827	n/a	n/a	-999	15	[8, 2, 3]	13.0	FR1	1	R1065J
1598.303	2.634	1869308	PROB	2.609	n/a	n/a	-999	15	[7, 6, 7]	20.0	FR1	1	R1065J
1600.937	1.983	1871942	PROB	1.951	n/a	n/a	-999	15	[1, 7, 7]	15.0	FR1	1	R1065J
1602.92	3.234	1873925	PROB	3.2	n/a	n/a	-999	15	[6, 4, 8]	18.0	FR1	1	R1065J
1606.154	2.622	1877159	PROB	2.622	n/a	n/a	-999	15	[5, 2, 8]	15.0	FR1	1	R1065J
1608.776	0.012	1879781	STOP	n/a	n/a	n/a	-999	15	[-999, -999, -999]	n/a	FR1	1	R1065J
1608.788	1.067	1879793	DISTRACT_END	n/a	n/a	n/a	-999	15	[0, 0, 0]	n/a	FR1	1	R1065J
1609.855	2.19	1880860	REC_START	n/a	n/a	n/a	-999	15	[0, 0, 0]	n/a	FR1	1	R1065J
1612.045	2.369	1883050	REC_WORD	2.19	n/a	CLOUD	-999	15	[0, 0, 0]	n/a	FR1	1	R1065J
1614.414	2.414	1885419	REC_WORD	4.559	n/a	RAIN	-999	15	[0, 0, 0]	n/a	FR1	1	R1065J
1616.828	3.232	1887833	REC_WORD	6.973	n/a	CUP	-999	15	[0, 0, 0]	n/a	FR1	1	R1065J
1620.06	5.581	1891065	REC_WORD	10.205	n/a	MULE	-999	15	[0, 0, 0]	n/a	FR1	1	R1065J
1625.641	4.923	1896646	REC_WORD	15.786	n/a	HORSE	-999	15	[0, 0, 0]	n/a	FR1	1	R1065J
1630.564	9.306	1901569	REC_WORD	20.709	n/a	FOOT	-999	15	[0, 0, 0]	n/a	FR1	1	R1065J
1639.87	3.805	1910875	REC_END	n/a	n/a	n/a	-999	15	[0, 0, 0]	n/a	FR1	1	R1065J
1643.675	0.0	1914680	TRIAL	n/a	n/a	n/a	-999	16	[0, 0, 0]	n/a	FR1	1	R1065J
1643.675	10.0	1914680	COUNTDOWN_START	n/a	n/a	n/a	-999	16	[0, 0, 0]	n/a	FR1	1	R1065J
1654.103	0.008	1925109	COUNTDOWN_END	n/a	n/a	n/a	-999	16	[0, 0, 0]	n/a	FR1	1	R1065J
1654.111	1.6	1925117	ORIENT	n/a	n/a	n/a	-999	16	[0, 0, 0]	n/a	FR1	1	R1065J
1656.545	1.6	1927551	WORD	n/a	wordpools/wordpool_EN.txt	BOOK	1	16	[0, 0, 0]	n/a	FR1	1	R1065J
1659.112	1.6	1930118	WORD	n/a	wordpools/wordpool_EN.txt	WHEEL	2	16	[0, 0, 0]	n/a	FR1	1	R1065J
1661.711	1.6	1932717	WORD	n/a	wordpools/wordpool_EN.txt	CLOCK	3	16	[0, 0, 0]	n/a	FR1	1	R1065J
1664.112	1.6	1935118	WORD	n/a	wordpools/wordpool_EN.txt	TOOL	4	16	[0, 0, 0]	n/a	FR1	1	R1065J
1666.529	1.6	1937535	WORD	n/a	wordpools/wordpool_EN.txt	MOLE	5	16	[0, 0, 0]	n/a	FR1	1	R1065J
1668.98	1.6	1939986	WORD	n/a	wordpools/wordpool_EN.txt	RAT	6	16	[0, 0, 0]	n/a	FR1	1	R1065J
1671.397	1.6	1942403	WORD	n/a	wordpools/wordpool_EN.txt	FUDGE	7	16	[0, 0, 0]	n/a	FR1	1	R1065J
1673.914	1.6	1944920	WORD	n/a	wordpools/wordpool_EN.txt	GLASS	8	16	[0, 0, 0]	n/a	FR1	1	R1065J
1676.414	1.6	1947420	WORD	n/a	wordpools/wordpool_EN.txt	CLOWN	9	16	[0, 0, 0]	n/a	FR1	1	R1065J
1678.881	1.6	1949887	WORD	n/a	wordpools/wordpool_EN.txt	LAMP	10	16	[0, 0, 0]	n/a	FR1	1	R1065J
1681.398	1.6	1952404	WORD	n/a	wordpools/wordpool_EN.txt	JEEP	11	16	[0, 0, 0]	n/a	FR1	1	R1065J
1683.848	1.6	1954854	WORD	n/a	wordpools/wordpool_EN.txt	TRAY	12	16	[0, 0, 0]	n/a	FR1	1	R1065J
1685.465	0.002	1956471	DISTRACT_START	n/a	n/a	n/a	-999	16	[0, 0, 0]	n/a	FR1	1	R1065J
1685.467	0.015	1956473	START	n/a	n/a	n/a	-999	16	[-999, -999, -999]	n/a	FR1	1	R1065J
1685.482	2.317	1956488	PROB	2.292	n/a	n/a	-999	16	[2, 5, 1]	8.0	FR1	1	R1065J
1687.799	1.934	1958805	PROB	1.91	n/a	n/a	-999	16	[2, 2, 2]	6.0	FR1	1	R1065J
1689.733	2.417	1960739	PROB	2.392	n/a	n/a	-999	16	[3, 2, 6]	11.0	FR1	1	R1065J
1692.15	2.3	1963156	PROB	2.263	n/a	n/a	-999	16	[3, 3, 7]	13.0	FR1	1	R1065J
1694.45	2.117	1965456	PROB	2.091	n/a	n/a	-999	16	[4, 5, 6]	15.0	FR1	1	R1065J
1696.567	2.067	1967573	PROB	2.047	n/a	n/a	-999	16	[8, 1, 6]	15.0	FR1	1	R1065J
1698.634	2.033	1969640	PROB	2.012	n/a	n/a	-999	16	[1, 7, 8]	16.0	FR1	1	R1065J
1700.667	2.368	1971673	PROB	2.338	n/a	n/a	-999	16	[4, 2, 8]	14.0	FR1	1	R1065J
1703.035	2.2	1974041	PROB	2.178	n/a	n/a	-999	16	[2, 8, 9]	19.0	FR1	1	R1065J
1705.235	2.306	1976241	PROB	2.306	n/a	n/a	-999	16	[8, 8, 4]	20.0	FR1	1	R1065J
1707.541	0.011	1978547	STOP	n/a	n/a	n/a	-999	16	[-999, -999, -999]	n/a	FR1	1	R1065J
1707.552	1.166	1978558	DISTRACT_END	n/a	n/a	n/a	-999	16	[0, 0, 0]	n/a	FR1	1	R1065J
1708.718	2.315	1979724	REC_START	n/a	n/a	n/a	-999	16	[0, 0, 0]	n/a	FR1	1	R1065J
1711.033	10.24	1982039	REC_WORD	2.315	n/a	CLOCK	-999	16	[0, 0, 0]	n/a	FR1	1	R1065J
1721.273	7.61	1992279	REC_WORD	12.555	n/a	BOOK	-999	16	[0, 0, 0]	n/a	FR1	1	R1065J
1728.883	5.724	1999889	REC_WORD	20.165	n/a	CUP	-999	16	[0, 0, 0]	n/a	FR1	1	R1065J
1734.607	4.129	2005613	REC_WORD	25.889	n/a	PLATE	-999	16	[0, 0, 0]	n/a	FR1	1	R1065J
1738.736	6.888	2009742	REC_END	n/a	n/a	n/a	-999	16	[0, 0, 0]	n/a	FR1	1	R1065J
1745.624	10.0	2016631	COUNTDOWN_START	n/a	n/a	n/a	-999	17	[0, 0, 0]	n/a	FR1	1	R1065J
1745.624	10.428	2016631	TRIAL	n/a	n/a	n/a	-999	17	[0, 0, 0]	n/a	FR1	1	R1065J
1756.052	0.007	2027059	COUNTDOWN_END	n/a	n/a	n/a	-999	17	[0, 0, 0]	n/a	FR1	1	R1065J
1756.059	1.6	2027066	ORIENT	n/a	n/a	n/a	-999	17	[0, 0, 0]	n/a	FR1	1	R1065J
1758.576	1.6	2029583	WORD	n/a	wordpools/wordpool_EN.txt	CAR	1	17	[0, 0, 0]	n/a	FR1	1	R1065J
1761.01	1.6	2032017	WORD	n/a	wordpools/wordpool_EN.txt	EGG	2	17	[0, 0, 0]	n/a	FR1	1	R1065J
1763.46	1.6	2034467	WORD	n/a	wordpools/wordpool_EN.txt	TOAD	3	17	[0, 0, 0]	n/a	FR1	1	R1065J
1765.943	1.6	2036950	WORD	n/a	wordpools/wordpool_EN.txt	HEART	4	17	[0, 0, 0]	n/a	FR1	1	R1065J
1768.411	1.6	2039418	WORD	n/a	wordpools/wordpool_EN.txt	ICE	5	17	[0, 0, 0]	n/a	FR1	1	R1065J
1770.911	1.6	2041918	WORD	n/a	wordpools/wordpool_EN.txt	PLANT	6	17	[0, 0, 0]	n/a	FR1	1	R1065J
1773.528	1.6	2044535	WORD	n/a	wordpools/wordpool_EN.txt	SHARK	7	17	[0, 0, 0]	n/a	FR1	1	R1065J
1776.145	1.6	2047152	WORD	n/a	wordpools/wordpool_EN.txt	BOMB	8	17	[0, 0, 0]	n/a	FR1	1	R1065J
1778.545	1.6	2049552	WORD	n/a	wordpools/wordpool_EN.txt	ROOT	9	17	[0, 0, 0]	n/a	FR1	1	R1065J
1781.146	1.6	2052153	WORD	n/a	wordpools/wordpool_EN.txt	SHIP	10	17	[0, 0, 0]	n/a	FR1	1	R1065J
1783.662	1.6	2054669	WORD	n/a	wordpools/wordpool_EN.txt	FILM	11	17	[0, 0, 0]	n/a	FR1	1	R1065J
1786.246	1.6	2057253	WORD	n/a	wordpools/wordpool_EN.txt	STAR	12	17	[0, 0, 0]	n/a	FR1	1	R1065J
1787.863	0.001	2058870	DISTRACT_START	n/a	n/a	n/a	-999	17	[0, 0, 0]	n/a	FR1	1	R1065J
1787.864	0.016	2058871	START	n/a	n/a	n/a	-999	17	[-999, -999, -999]	n/a	FR1	1	R1065J
1787.88	2.901	2058887	PROB	2.875	n/a	n/a	-999	17	[7, 3, 9]	19.0	FR1	1	R1065J
1790.781	1.915	2061788	PROB	1.885	n/a	n/a	-999	17	[5, 3, 2]	10.0	FR1	1	R1065J
1792.696	2.535	2063703	PROB	2.507	n/a	n/a	-999	17	[7, 8, 4]	19.0	FR1	1	R1065J
1795.231	1.884	2066238	PROB	1.86	n/a	n/a	-999	17	[3, 2, 5]	11.0	FR1	1	R1065J
1797.115	1.9	2068122	PROB	1.872	n/a	n/a	-999	17	[1, 3, 5]	9.0	FR1	1	R1065J
1799.015	2.567	2070022	PROB	2.54	n/a	n/a	-999	17	[8, 1, 5]	14.0	FR1	1	R1065J
1801.582	1.917	2072589	PROB	1.885	n/a	n/a	-999	17	[1, 8, 1]	10.0	FR1	1	R1065J
1803.499	2.05	2074506	PROB	2.016	n/a	n/a	-999	17	[4, 1, 6]	11.0	FR1	1	R1065J
1805.549	2.217	2076556	PROB	2.182	n/a	n/a	-999	17	[7, 8, 5]	20.0	FR1	1	R1065J
1807.766	3.269	2078773	PROB	3.269	n/a	n/a	-999	17	[5, 8, 7]	20.0	FR1	1	R1065J
1811.035	0.015	2082042	STOP	n/a	n/a	n/a	-999	17	[-999, -999, -999]	n/a	FR1	1	R1065J
1811.05	1.117	2082057	DISTRACT_END	n/a	n/a	n/a	-999	17	[0, 0, 0]	n/a	FR1	1	R1065J
1812.167	2.695	2083174	REC_START	n/a	n/a	n/a	-999	17	[0, 0, 0]	n/a	FR1	1	R1065J
1814.862	2.563	2085869	REC_WORD	2.695	n/a	STAR	-999	17	[0, 0, 0]	n/a	FR1	1	R1065J
1817.425	3.74	2088432	REC_WORD	5.258	n/a	FILM	-999	17	[0, 0, 0]	n/a	FR1	1	R1065J
1821.165	2.853	2092172	REC_WORD	8.998	n/a	CAR	-999	17	[0, 0, 0]	n/a	FR1	1	R1065J
1824.018	1.301	2095025	REC_WORD	11.851	n/a	HEART	-999	17	[0, 0, 0]	n/a	FR1	1	R1065J
1825.319	16.866	2096326	REC_WORD_VV	13.152	n/a	<>	-999	17	[0, 0, 0]	n/a	FR1	1	R1065J
1842.185	6.82	2113193	REC_END	n/a	n/a	n/a	-999	17	[0, 0, 0]	n/a	FR1	1	R1065J
1849.005	10.0	2120013	COUNTDOWN_START	n/a	n/a	n/a	-999	18	[0, 0, 0]	n/a	FR1	1	R1065J
1849.006	10.427	2120014	TRIAL	n/a	n/a	n/a	-999	18	[0, 0, 0]	n/a	FR1	1	R1065J
1859.433	0.007	2130441	COUNTDOWN_END	n/a	n/a	n/a	-999	18	[0, 0, 0]	n/a	FR1	1	R1065J
1859.44	1.6	2130448	ORIENT	n/a	n/a	n/a	-999	18	[0, 0, 0]	n/a	FR1	1	R1065J
1862.007	1.6	2133015	WORD	n/a	wordpools/wordpool_EN.txt	KEY	1	18	[0, 0, 0]	n/a	FR1	1	R1065J
1864.557	1.6	2135565	WORD	n/a	wordpools/wordpool_EN.txt	SHIELD	2	18	[0, 0, 0]	n/a	FR1	1	R1065J
1867.175	1.6	2138183	WORD	n/a	wordpools/wordpool_EN.txt	HOUSE	3	18	[0, 0, 0]	n/a	FR1	1	R1065J
1869.808	1.6	2140816	WORD	n/a	wordpools/wordpool_EN.txt	CHALK	4	18	[0, 0, 0]	n/a	FR1	1	R1065J
1872.408	1.6	2143416	WORD	n/a	wordpools/wordpool_EN.txt	WING	5	18	[0, 0, 0]	n/a	FR1	1	R1065J
1874.959	1.6	2145967	WORD	n/a	wordpools/wordpool_EN.txt	STREET	6	18	[0, 0, 0]	n/a	FR1	1	R1065J
1877.559	1.6	2148567	WORD	n/a	wordpools/wordpool_EN.txt	FORT	7	18	[0, 0, 0]	n/a	FR1	1	R1065J
1880.076	1.6	2151084	WORD	n/a	wordpools/wordpool_EN.txt	DOLL	8	18	[0, 0, 0]	n/a	FR1	1	R1065J
1882.692	1.6	2153700	WORD	n/a	wordpools/wordpool_EN.txt	DOCK	9	18	[0, 0, 0]	n/a	FR1	1	R1065J
1885.294	1.6	2156302	WORD	n/a	wordpools/wordpool_EN.txt	MAP	10	18	[0, 0, 0]	n/a	FR1	1	R1065J
1887.777	1.6	2158785	WORD	n/a	wordpools/wordpool_EN.txt	ELF	11	18	[0, 0, 0]	n/a	FR1	1	R1065J
1890.311	1.6	2161319	WORD	n/a	wordpools/wordpool_EN.txt	SHOE	12	18	[0, 0, 0]	n/a	FR1	1	R1065J
1891.928	0.001	2162936	DISTRACT_START	n/a	n/a	n/a	-999	18	[0, 0, 0]	n/a	FR1	1	R1065J
1891.929	0.016	2162937	START	n/a	n/a	n/a	-999	18	[-999, -999, -999]	n/a	FR1	1	R1065J
1891.945	3.283	2162953	PROB	3.247	n/a	n/a	-999	18	[7, 9, 2]	18.0	FR1	1	R1065J
1895.228	1.817	2166236	PROB	1.788	n/a	n/a	-999	18	[1, 1, 4]	6.0	FR1	1	R1065J
1897.045	2.201	2168053	PROB	2.171	n/a	n/a	-999	18	[7, 1, 2]	10.0	FR1	1	R1065J
1899.246	3.1	2170254	PROB	3.074	n/a	n/a	-999	18	[5, 2, 6]	13.0	FR1	1	R1065J
1902.346	2.4	2173354	PROB	2.373	n/a	n/a	-999	18	[9, 8, 1]	18.0	FR1	1	R1065J
1904.746	2.818	2175754	PROB	2.79	n/a	n/a	-999	18	[7, 9, 2]	18.0	FR1	1	R1065J
1907.564	4.283	2178572	PROB	4.252	n/a	n/a	-999	18	[9, 4, 5]	18.0	FR1	1	R1065J
1911.847	1.977	2182855	PROB	1.977	n/a	n/a	-999	18	[2, 9, 9]	20.0	FR1	1	R1065J
1913.824	0.007	2184832	STOP	n/a	n/a	n/a	-999	18	[-999, -999, -999]	n/a	FR1	1	R1065J
1913.831	1.151	2184839	DISTRACT_END	n/a	n/a	n/a	-999	18	[0, 0, 0]	n/a	FR1	1	R1065J
1914.982	3.667	2185990	REC_START	n/a	n/a	n/a	-999	18	[0, 0, 0]	n/a	FR1	1	R1065J
1918.649	2.206	2189657	REC_WORD	3.667	n/a	KEY	-999	18	[0, 0, 0]	n/a	FR1	1	R1065J
1920.855	2.23	2191863	REC_WORD	5.873	n/a	FORT	-999	18	[0, 0, 0]	n/a	FR1	1	R1065J
1923.085	2.73	2194093	REC_WORD	8.103	n/a	DOOR	-999	18	[0, 0, 0]	n/a	FR1	1	R1065J
1925.815	7.438	2196823	REC_WORD	10.833	n/a	ROAD	-999	18	[0, 0, 0]	n/a	FR1	1	R1065J
1933.253	11.741	2204261	REC_WORD	18.271	n/a	MAP	-999	18	[0, 0, 0]	n/a	FR1	1	R1065J
1944.994	3.926	2216003	REC_END	n/a	n/a	n/a	-999	18	[0, 0, 0]	n/a	FR1	1	R1065J
1948.92	10.0	2219929	COUNTDOWN_START	n/a	n/a	n/a	-999	19	[0, 0, 0]	n/a	FR1	1	R1065J
1948.92	10.428	2219929	TRIAL	n/a	n/a	n/a	-999	19	[0, 0, 0]	n/a	FR1	1	R1065J
1959.348	0.006	2230357	COUNTDOWN_END	n/a	n/a	n/a	-999	19	[0, 0, 0]	n/a	FR1	1	R1065J
1959.354	1.6	2230363	ORIENT	n/a	n/a	n/a	-999	19	[0, 0, 0]	n/a	FR1	1	R1065J
1961.971	1.6	2232980	WORD	n/a	wordpools/wordpool_EN.txt	SMOKE	1	19	[0, 0, 0]	n/a	FR1	1	R1065J
1964.588	1.6	2235597	WORD	n/a	wordpools/wordpool_EN.txt	SIGN	2	19	[0, 0, 0]	n/a	FR1	1	R1065J
1966.972	1.6	2237981	WORD	n/a	wordpools/wordpool_EN.txt	JAIL	3	19	[0, 0, 0]	n/a	FR1	1	R1065J
1969.356	1.6	2240365	WORD	n/a	wordpools/wordpool_EN.txt	JUDGE	4	19	[0, 0, 0]	n/a	FR1	1	R1065J
1971.906	1.6	2242915	WORD	n/a	wordpools/wordpool_EN.txt	TOAST	5	19	[0, 0, 0]	n/a	FR1	1	R1065J
1974.406	1.6	2245415	WORD	n/a	wordpools/wordpool_EN.txt	SOUP	6	19	[0, 0, 0]	n/a	FR1	1	R1065J
1976.957	1.6	2247966	WORD	n/a	wordpools/wordpool_EN.txt	DESK	7	19	[0, 0, 0]	n/a	FR1	1	R1065J
1979.424	1.6	2250433	WORD	n/a	wordpools/wordpool_EN.txt	SLEEVE	8	19	[0, 0, 0]	n/a	FR1	1	R1065J
1982.041	1.6	2253050	WORD	n/a	wordpools/wordpool_EN.txt	FACE	9	19	[0, 0, 0]	n/a	FR1	1	R1065J
1984.541	1.6	2255550	WORD	n/a	wordpools/wordpool_EN.txt	PIN	10	19	[0, 0, 0]	n/a	FR1	1	R1065J
1987.058	1.6	2258067	WORD	n/a	wordpools/wordpool_EN.txt	SMILE	11	19	[0, 0, 0]	n/a	FR1	1	R1065J
1989.525	1.6	2260534	WORD	n/a	wordpools/wordpool_EN.txt	ARK	12	19	[0, 0, 0]	n/a	FR1	1	R1065J
1991.142	0.001	2262151	DISTRACT_START	n/a	n/a	n/a	-999	19	[0, 0, 0]	n/a	FR1	1	R1065J
1991.143	0.016	2262152	START	n/a	n/a	n/a	-999	19	[-999, -999, -999]	n/a	FR1	1	R1065J
1991.159	2.95	2262168	PROB	2.926	n/a	n/a	-999	19	[4, 8, 6]	18.0	FR1	1	R1065J
1994.109	2.35	2265118	PROB	2.32	n/a	n/a	-999	19	[9, 4, 2]	15.0	FR1	1	R1065J
1996.459	2.668	2267468	PROB	2.643	n/a	n/a	-999	19	[6, 9, 6]	21.0	FR1	1	R1065J
1999.127	2.166	2270136	PROB	2.135	n/a	n/a	-999	19	[1, 9, 6]	16.0	FR1	1	R1065J
2001.293	2.217	2272302	PROB	2.184	n/a	n/a	-999	19	[6, 7, 3]	16.0	FR1	1	R1065J
2003.51	1.884	2274519	PROB	1.855	n/a	n/a	-999	19	[5, 3, 5]	13.0	FR1	1	R1065J
2005.394	3.134	2276403	PROB	3.107	n/a	n/a	-999	19	[8, 3, 9]	20.0	FR1	1	R1065J
2008.528	2.149	2279537	PROB	2.125	n/a	n/a	-999	19	[5, 5, 5]	15.0	FR1	1	R1065J
2010.677	2.064	2281686	PROB	2.064	n/a	n/a	-999	19	[8, 4, 8]	20.0	FR1	1	R1065J
2012.741	0.004	2283750	STOP	n/a	n/a	n/a	-999	19	[-999, -999, -999]	n/a	FR1	1	R1065J
2012.745	1.151	2283754	DISTRACT_END	n/a	n/a	n/a	-999	19	[0, 0, 0]	n/a	FR1	1	R1065J
2013.896	2.501	2284905	REC_START	n/a	n/a	n/a	-999	19	[0, 0, 0]	n/a	FR1	1	R1065J
2016.397	1.914	2287406	REC_WORD	2.501	n/a	ARK	-999	19	[0, 0, 0]	n/a	FR1	1	R1065J
2018.311	2.771	2289320	REC_WORD	4.415	n/a	TOAST	-999	19	[0, 0, 0]	n/a	FR1	1	R1065J
2021.082	17.993	2292091	REC_WORD	7.186	n/a	SOUP	-999	19	[0, 0, 0]	n/a	FR1	1	R1065J
2039.075	2.345	2310085	REC_WORD	25.179	n/a	JUDGE	-999	19	[0, 0, 0]	n/a	FR1	1	R1065J
2041.42	2.488	2312430	REC_WORD	27.524	n/a	JAIL	-999	19	[0, 0, 0]	n/a	FR1	1	R1065J
2043.908	4.459	2314918	REC_END	n/a	n/a	n/a	-999	19	[0, 0, 0]	n/a	FR1	1	R1065J
2048.367	0.0	2319377	TRIAL	n/a	n/a	n/a	-999	20	[0, 0, 0]	n/a	FR1	1	R1065J
2048.367	10.0	2319377	COUNTDOWN_START	n/a	n/a	n/a	-999	20	[0, 0, 0]	n/a	FR1	1	R1065J
2058.795	0.007	2329805	COUNTDOWN_END	n/a	n/a	n/a	-999	20	[0, 0, 0]	n/a	FR1	1	R1065J
2058.802	1.6	2329812	ORIENT	n/a	n/a	n/a	-999	20	[0, 0, 0]	n/a	FR1	1	R1065J
2061.218	1.6	2332228	WORD	n/a	wordpools/wordpool_EN.txt	NOSE	1	20	[0, 0, 0]	n/a	FR1	1	R1065J
2063.652	1.6	2334662	WORD	n/a	wordpools/wordpool_EN.txt	MAZE	2	20	[0, 0, 0]	n/a	FR1	1	R1065J
2066.069	1.6	2337079	WORD	n/a	wordpools/wordpool_EN.txt	BUSH	3	20	[0, 0, 0]	n/a	FR1	1	R1065J
2068.669	1.6	2339679	WORD	n/a	wordpools/wordpool_EN.txt	WEED	4	20	[0, 0, 0]	n/a	FR1	1	R1065J
2071.07	1.6	2342080	WORD	n/a	wordpools/wordpool_EN.txt	SWORD	5	20	[0, 0, 0]	n/a	FR1	1	R1065J
2073.47	1.6	2344480	WORD	n/a	wordpools/wordpool_EN.txt	SQUARE	6	20	[0, 0, 0]	n/a	FR1	1	R1065J
2076.054	1.6	2347064	WORD	n/a	wordpools/wordpool_EN.txt	LAND	7	20	[0, 0, 0]	n/a	FR1	1	R1065J
2078.67	1.6	2349680	WORD	n/a	wordpools/wordpool_EN.txt	HILL	8	20	[0, 0, 0]	n/a	FR1	1	R1065J
2081.271	1.6	2352281	WORD	n/a	wordpools/wordpool_EN.txt	CLIFF	9	20	[0, 0, 0]	n/a	FR1	1	R1065J
2083.721	1.6	2354731	WORD	n/a	wordpools/wordpool_EN.txt	BOY	10	20	[0, 0, 0]	n/a	FR1	1	R1065J
2086.172	1.6	2357182	WORD	n/a	wordpools/wordpool_EN.txt	LAKE	11	20	[0, 0, 0]	n/a	FR1	1	R1065J
2088.789	1.6	2359799	WORD	n/a	wordpools/wordpool_EN.txt	ROCK	12	20	[0, 0, 0]	n/a	FR1	1	R1065J
2090.406	0.001	2361416	DISTRACT_START	n/a	n/a	n/a	-999	20	[0, 0, 0]	n/a	FR1	1	R1065J
2090.407	0.016	2361417	START	n/a	n/a	n/a	-999	20	[-999, -999, -999]	n/a	FR1	1	R1065J
2090.423	3.534	2361433	PROB	3.5	n/a	n/a	-999	20	[6, 3, 1]	10.0	FR1	1	R1065J
2093.957	2.667	2364967	PROB	2.646	n/a	n/a	-999	20	[4, 3, 7]	14.0	FR1	1	R1065J
2096.624	6.0	2367634	PROB	5.97	n/a	n/a	-999	20	[4, 9, 6]	19.0	FR1	1	R1065J
2102.624	2.018	2373634	PROB	1.995	n/a	n/a	-999	20	[6, 2, 9]	17.0	FR1	1	R1065J
2104.642	2.032	2375652	PROB	2.009	n/a	n/a	-999	20	[8, 4, 6]	18.0	FR1	1	R1065J
2106.674	2.268	2377684	PROB	2.233	n/a	n/a	-999	20	[9, 7, 9]	25.0	FR1	1	R1065J
2108.942	2.844	2379952	PROB	2.844	n/a	n/a	-999	20	[9, 6, 3]	18.0	FR1	1	R1065J
2111.786	0.006	2382796	STOP	n/a	n/a	n/a	-999	20	[-999, -999, -999]	n/a	FR1	1	R1065J
2111.792	1.151	2382802	DISTRACT_END	n/a	n/a	n/a	-999	20	[0, 0, 0]	n/a	FR1	1	R1065J
2112.943	1.639	2383953	REC_START	n/a	n/a	n/a	-999	20	[0, 0, 0]	n/a	FR1	1	R1065J
2114.582	1.674	2385592	REC_WORD	1.639	n/a	BUSH	-999	20	[0, 0, 0]	n/a	FR1	1	R1065J
2116.256	1.793	2387266	REC_WORD	3.313	n/a	HILL	-999	20	[0, 0, 0]	n/a	FR1	1	R1065J
2118.049	1.915	2389059	REC_WORD	5.106	n/a	CLIFF	-999	20	[0, 0, 0]	n/a	FR1	1	R1065J
2119.964	3.212	2390974	REC_WORD	7.021	n/a	LAND	-999	20	[0, 0, 0]	n/a	FR1	1	R1065J
2123.176	2.692	2394186	REC_WORD	10.233	n/a	WEED	-999	20	[0, 0, 0]	n/a	FR1	1	R1065J
2125.868	17.09	2396878	REC_WORD	12.925	n/a	BOY	-999	20	[0, 0, 0]	n/a	FR1	1	R1065J
2142.958	5.64	2413969	REC_END	n/a	n/a	n/a	-999	20	[0, 0, 0]	n/a	FR1	1	R1065J
2148.598	10.0	2419609	COUNTDOWN_START	n/a	n/a	n/a	-999	21	[0, 0, 0]	n/a	FR1	1	R1065J
2148.598	10.428	2419609	TRIAL	n/a	n/a	n/a	-999	21	[0, 0, 0]	n/a	FR1	1	R1065J
2159.026	0.007	2430037	COUNTDOWN_END	n/a	n/a	n/a	-999	21	[0, 0, 0]	n/a	FR1	1	R1065J
2159.033	1.6	2430044	ORIENT	n/a	n/a	n/a	-999	21	[0, 0, 0]	n/a	FR1	1	R1065J
2161.616	1.6	2432627	WORD	n/a	wordpools/wordpool_EN.txt	HOOK	1	21	[0, 0, 0]	n/a	FR1	1	R1065J
2164.067	1.6	2435078	WORD	n/a	wordpools/wordpool_EN.txt	SEAL	2	21	[0, 0, 0]	n/a	FR1	1	R1065J
2166.55	1.6	2437561	WORD	n/a	wordpools/wordpool_EN.txt	SHRIMP	3	21	[0, 0, 0]	n/a	FR1	1	R1065J
2168.934	1.6	2439945	WORD	n/a	wordpools/wordpool_EN.txt	CHAIR	4	21	[0, 0, 0]	n/a	FR1	1	R1065J
2171.534	1.6	2442545	WORD	n/a	wordpools/wordpool_EN.txt	GLOVE	5	21	[0, 0, 0]	n/a	FR1	1	R1065J
2173.951	1.6	2444962	WORD	n/a	wordpools/wordpool_EN.txt	GATE	6	21	[0, 0, 0]	n/a	FR1	1	R1065J
2176.535	1.6	2447546	WORD	n/a	wordpools/wordpool_EN.txt	PALM	7	21	[0, 0, 0]	n/a	FR1	1	R1065J
2179.002	1.6	2450013	WORD	n/a	wordpools/wordpool_EN.txt	HAT	8	21	[0, 0, 0]	n/a	FR1	1	R1065J
2181.452	1.6	2452463	WORD	n/a	wordpools/wordpool_EN.txt	MOUTH	9	21	[0, 0, 0]	n/a	FR1	1	R1065J
2184.052	1.6	2455063	WORD	n/a	wordpools/wordpool_EN.txt	THUMB	10	21	[0, 0, 0]	n/a	FR1	1	R1065J
2186.636	1.6	2457647	WORD	n/a	wordpools/wordpool_EN.txt	BATH	11	21	[0, 0, 0]	n/a	FR1	1	R1065J
2189.054	1.6	2460065	WORD	n/a	wordpools/wordpool_EN.txt	WORLD	12	21	[0, 0, 0]	n/a	FR1	1	R1065J
2190.67	0.001	2461681	DISTRACT_START	n/a	n/a	n/a	-999	21	[0, 0, 0]	n/a	FR1	1	R1065J
2190.671	0.015	2461682	START	n/a	n/a	n/a	-999	21	[-999, -999, -999]	n/a	FR1	1	R1065J
2190.686	2.918	2461697	PROB	2.882	n/a	n/a	-999	21	[1, 7, 9]	17.0	FR1	1	R1065J
2193.604	3.634	2464615	PROB	3.604	n/a	n/a	-999	21	[6, 8, 9]	23.0	FR1	1	R1065J
2197.238	2.034	2468249	PROB	2.01	n/a	n/a	-999	21	[7, 4, 3]	14.0	FR1	1	R1065J
2199.272	2.533	2470283	PROB	2.512	n/a	n/a	-999	21	[2, 5, 7]	16.0	FR1	1	R1065J
2201.805	3.084	2472816	PROB	3.051	n/a	n/a	-999	21	[7, 3, 6]	16.0	FR1	1	R1065J
2204.889	2.217	2475900	PROB	2.183	n/a	n/a	-999	21	[8, 1, 2]	11.0	FR1	1	R1065J
2207.106	1.85	2478117	PROB	1.83	n/a	n/a	-999	21	[7, 3, 5]	15.0	FR1	1	R1065J
2208.956	2.804	2479967	PROB	2.804	n/a	n/a	-999	21	[6, 3, 4]	13.0	FR1	1	R1065J
2211.76	0.013	2482771	STOP	n/a	n/a	n/a	-999	21	[-999, -999, -999]	n/a	FR1	1	R1065J
2211.773	1.151	2482784	DISTRACT_END	n/a	n/a	n/a	-999	21	[0, 0, 0]	n/a	FR1	1	R1065J
2212.924	2.399	2483935	REC_START	n/a	n/a	n/a	-999	21	[0, 0, 0]	n/a	FR1	1	R1065J
2215.323	1.662	2486334	REC_WORD	2.399	n/a	PALM	-999	21	[0, 0, 0]	n/a	FR1	1	R1065J
2216.985	2.323	2487996	REC_WORD	4.061	n/a	THUMB	-999	21	[0, 0, 0]	n/a	FR1	1	R1065J
2219.308	3.726	2490319	REC_WORD	6.384	n/a	GLOVE	-999	21	[0, 0, 0]	n/a	FR1	1	R1065J
2223.034	6.496	2494045	REC_WORD	10.11	n/a	BATH	-999	21	[0, 0, 0]	n/a	FR1	1	R1065J
2229.53	13.406	2500542	REC_WORD	16.606	n/a	MOUTH	-999	21	[0, 0, 0]	n/a	FR1	1	R1065J
2242.936	3.626	2513948	REC_END	n/a	n/a	n/a	-999	21	[0, 0, 0]	n/a	FR1	1	R1065J
2246.562	0.0	2517574	TRIAL	n/a	n/a	n/a	-999	22	[0, 0, 0]	n/a	FR1	1	R1065J
2246.562	10.0	2517574	COUNTDOWN_START	n/a	n/a	n/a	-999	22	[0, 0, 0]	n/a	FR1	1	R1065J
2256.99	0.007	2528002	COUNTDOWN_END	n/a	n/a	n/a	-999	22	[0, 0, 0]	n/a	FR1	1	R1065J
2256.997	1.6	2528009	ORIENT	n/a	n/a	n/a	-999	22	[0, 0, 0]	n/a	FR1	1	R1065J
2259.53	1.6	2530542	WORD	n/a	wordpools/wordpool_EN.txt	RAKE	1	22	[0, 0, 0]	n/a	FR1	1	R1065J
2261.964	1.6	2532976	WORD	n/a	wordpools/wordpool_EN.txt	EAR	2	22	[0, 0, 0]	n/a	FR1	1	R1065J
2264.364	1.6	2535376	WORD	n/a	wordpools/wordpool_EN.txt	HOLE	3	22	[0, 0, 0]	n/a	FR1	1	R1065J
2266.965	1.6	2537977	WORD	n/a	wordpools/wordpool_EN.txt	LEG	4	22	[0, 0, 0]	n/a	FR1	1	R1065J
2269.432	1.6	2540444	WORD	n/a	wordpools/wordpool_EN.txt	CORD	5	22	[0, 0, 0]	n/a	FR1	1	R1065J
2272.032	1.6	2543044	WORD	n/a	wordpools/wordpool_EN.txt	YARD	6	22	[0, 0, 0]	n/a	FR1	1	R1065J
2274.632	1.6	2545644	WORD	n/a	wordpools/wordpool_EN.txt	COUCH	7	22	[0, 0, 0]	n/a	FR1	1	R1065J
2277.083	1.6	2548095	WORD	n/a	wordpools/wordpool_EN.txt	ROPE	8	22	[0, 0, 0]	n/a	FR1	1	R1065J
2279.483	1.6	2550495	WORD	n/a	wordpools/wordpool_EN.txt	TAIL	9	22	[0, 0, 0]	n/a	FR1	1	R1065J
2281.933	1.6	2552945	WORD	n/a	wordpools/wordpool_EN.txt	LAWN	10	22	[0, 0, 0]	n/a	FR1	1	R1065J
2284.55	1.6	2555562	WORD	n/a	wordpools/wordpool_EN.txt	BAND	11	22	[0, 0, 0]	n/a	FR1	1	R1065J
2286.951	1.6	2557963	WORD	n/a	wordpools/wordpool_EN.txt	DART	12	22	[0, 0, 0]	n/a	FR1	1	R1065J
2288.568	0.001	2559580	DISTRACT_START	n/a	n/a	n/a	-999	22	[0, 0, 0]	n/a	FR1	1	R1065J
2288.569	0.015	2559581	START	n/a	n/a	n/a	-999	22	[-999, -999, -999]	n/a	FR1	1	R1065J
2288.584	2.734	2559596	PROB	2.702	n/a	n/a	-999	22	[6, 7, 3]	16.0	FR1	1	R1065J
2291.318	2.55	2562330	PROB	2.52	n/a	n/a	-999	22	[7, 2, 5]	14.0	FR1	1	R1065J
2293.868	1.967	2564880	PROB	1.938	n/a	n/a	-999	22	[5, 1, 3]	9.0	FR1	1	R1065J
2295.835	2.167	2566847	PROB	2.147	n/a	n/a	-999	22	[6, 7, 9]	22.0	FR1	1	R1065J
2298.002	2.051	2569014	PROB	2.027	n/a	n/a	-999	22	[7, 3, 4]	14.0	FR1	1	R1065J
2300.053	3.117	2571065	PROB	3.08	n/a	n/a	-999	22	[5, 8, 7]	20.0	FR1	1	R1065J
2303.17	3.583	2574182	PROB	3.554	n/a	n/a	-999	22	[1, 7, 4]	13.0	FR1	1	R1065J
2306.753	2.404	2577765	PROB	2.404	n/a	n/a	-999	22	[6, 6, 1]	13.0	FR1	1	R1065J
2309.157	0.014	2580169	STOP	n/a	n/a	n/a	-999	22	[-999, -999, -999]	n/a	FR1	1	R1065J
2309.171	1.134	2580183	DISTRACT_END	n/a	n/a	n/a	-999	22	[0, 0, 0]	n/a	FR1	1	R1065J
2310.305	2.928	2581317	REC_START	n/a	n/a	n/a	-999	22	[0, 0, 0]	n/a	FR1	1	R1065J
2313.233	2.876	2584245	REC_WORD	2.928	n/a	YARD	-999	22	[0, 0, 0]	n/a	FR1	1	R1065J
2316.109	8.527	2587121	REC_WORD	5.804	n/a	COUCH	-999	22	[0, 0, 0]	n/a	FR1	1	R1065J
2324.636	6.953	2595649	REC_WORD	14.331	n/a	LAWN	-999	22	[0, 0, 0]	n/a	FR1	1	R1065J
2331.589	2.556	2602602	REC_WORD	21.284	n/a	LEG	-999	22	[0, 0, 0]	n/a	FR1	1	R1065J
2334.145	5.512	2605158	REC_WORD	23.84	n/a	CORD	-999	22	[0, 0, 0]	n/a	FR1	1	R1065J
2339.657	0.66	2610670	REC_WORD	29.352	n/a	ROPE	-999	22	[0, 0, 0]	n/a	FR1	1	R1065J
2340.317	4.408	2611330	REC_END	n/a	n/a	n/a	-999	22	[0, 0, 0]	n/a	FR1	1	R1065J
2344.725	10.0	2615738	COUNTDOWN_START	n/a	n/a	n/a	-999	23	[0, 0, 0]	n/a	FR1	1	R1065J
2344.725	10.428	2615738	TRIAL	n/a	n/a	n/a	-999	23	[0, 0, 0]	n/a	FR1	1	R1065J
2355.153	0.007	2626166	COUNTDOWN_END	n/a	n/a	n/a	-999	23	[0, 0, 0]	n/a	FR1	1	R1065J
2355.16	1.6	2626173	ORIENT	n/a	n/a	n/a	-999	23	[0, 0, 0]	n/a	FR1	1	R1065J
2357.693	1.6	2628706	WORD	n/a	wordpools/wordpool_EN.txt	SKI	1	23	[0, 0, 0]	n/a	FR1	1	R1065J
2360.228	1.6	2631241	WORD	n/a	wordpools/wordpool_EN.txt	CRANE	2	23	[0, 0, 0]	n/a	FR1	1	R1065J
2362.694	1.6	2633707	WORD	n/a	wordpools/wordpool_EN.txt	OWL	3	23	[0, 0, 0]	n/a	FR1	1	R1065J
2365.195	1.6	2636208	WORD	n/a	wordpools/wordpool_EN.txt	WALL	4	23	[0, 0, 0]	n/a	FR1	1	R1065J
2367.812	1.6	2638825	WORD	n/a	wordpools/wordpool_EN.txt	BOOT	5	23	[0, 0, 0]	n/a	FR1	1	R1065J
2370.313	1.6	2641326	WORD	n/a	wordpools/wordpool_EN.txt	SNOW	6	23	[0, 0, 0]	n/a	FR1	1	R1065J
2372.846	1.6	2643859	WORD	n/a	wordpools/wordpool_EN.txt	THREAD	7	23	[0, 0, 0]	n/a	FR1	1	R1065J
2375.313	1.6	2646326	WORD	n/a	wordpools/wordpool_EN.txt	HOOF	8	23	[0, 0, 0]	n/a	FR1	1	R1065J
2377.696	1.6	2648709	WORD	n/a	wordpools/wordpool_EN.txt	TOE	9	23	[0, 0, 0]	n/a	FR1	1	R1065J
2380.247	1.6	2651260	WORD	n/a	wordpools/wordpool_EN.txt	DOOR	10	23	[0, 0, 0]	n/a	FR1	1	R1065J
2382.697	1.6	2653710	WORD	n/a	wordpools/wordpool_EN.txt	RUG	11	23	[0, 0, 0]	n/a	FR1	1	R1065J
2385.098	1.6	2656111	WORD	n/a	wordpools/wordpool_EN.txt	SPRING	12	23	[0, 0, 0]	n/a	FR1	1	R1065J
2386.714	0.001	2657727	DISTRACT_START	n/a	n/a	n/a	-999	23	[0, 0, 0]	n/a	FR1	1	R1065J
2386.715	0.017	2657728	START	n/a	n/a	n/a	-999	23	[-999, -999, -999]	n/a	FR1	1	R1065J
2386.732	2.567	2657745	PROB	2.535	n/a	n/a	-999	23	[2, 9, 9]	20.0	FR1	1	R1065J
2389.299	2.75	2660312	PROB	2.728	n/a	n/a	-999	23	[8, 8, 6]	22.0	FR1	1	R1065J
2392.049	1.85	2663062	PROB	1.818	n/a	n/a	-999	23	[7, 7, 1]	15.0	FR1	1	R1065J
2393.899	2.617	2664912	PROB	2.584	n/a	n/a	-999	23	[3, 8, 2]	13.0	FR1	1	R1065J
2396.516	2.651	2667529	PROB	2.623	n/a	n/a	-999	23	[7, 5, 5]	17.0	FR1	1	R1065J
2399.167	2.133	2670180	PROB	2.107	n/a	n/a	-999	23	[8, 5, 2]	15.0	FR1	1	R1065J
2401.3	2.067	2672313	PROB	2.038	n/a	n/a	-999	23	[9, 2, 6]	17.0	FR1	1	R1065J
2403.367	4.02	2674380	PROB	4.02	n/a	n/a	-999	23	[9, 7, 8]	23.0	FR1	1	R1065J
2407.387	0.014	2678400	STOP	n/a	n/a	n/a	-999	23	[-999, -999, -999]	n/a	FR1	1	R1065J
2407.401	1.135	2678414	DISTRACT_END	n/a	n/a	n/a	-999	23	[0, 0, 0]	n/a	FR1	1	R1065J
2408.536	2.337	2679549	REC_START	n/a	n/a	n/a	-999	23	[0, 0, 0]	n/a	FR1	1	R1065J
2410.873	2.402	2681886	REC_WORD_VV	2.337	n/a	<>	-999	23	[0, 0, 0]	n/a	FR1	1	R1065J
2413.275	2.206	2684288	REC_WORD	4.739	n/a	OWL	-999	23	[0, 0, 0]	n/a	FR1	1	R1065J
2415.481	3.691	2686494	REC_WORD	6.945	n/a	CRANE	-999	23	[0, 0, 0]	n/a	FR1	1	R1065J
2419.172	14.781	2690186	REC_WORD	10.636	n/a	BOOT	-999	23	[0, 0, 0]	n/a	FR1	1	R1065J
2433.953	4.595	2704967	REC_WORD	25.417	n/a	LEG	-999	23	[0, 0, 0]	n/a	FR1	1	R1065J
2438.548	5.141	2709562	REC_END	n/a	n/a	n/a	-999	23	[0, 0, 0]	n/a	FR1	1	R1065J
2443.689	0.0	2714703	TRIAL	n/a	n/a	n/a	-999	24	[0, 0, 0]	n/a	FR1	1	R1065J
2443.689	10.0	2714703	COUNTDOWN_START	n/a	n/a	n/a	-999	24	[0, 0, 0]	n/a	FR1	1	R1065J
2454.117	0.007	2725131	COUNTDOWN_END	n/a	n/a	n/a	-999	24	[0, 0, 0]	n/a	FR1	1	R1065J
2454.124	1.6	2725138	ORIENT	n/a	n/a	n/a	-999	24	[0, 0, 0]	n/a	FR1	1	R1065J
2456.658	1.6	2727672	WORD	n/a	wordpools/wordpool_EN.txt	POLE	1	24	[0, 0, 0]	n/a	FR1	1	R1065J
2459.109	1.6	2730123	WORD	n/a	wordpools/wordpool_EN.txt	CHEEK	2	24	[0, 0, 0]	n/a	FR1	1	R1065J
2461.659	1.6	2732673	WORD	n/a	wordpools/wordpool_EN.txt	PHONE	3	24	[0, 0, 0]	n/a	FR1	1	R1065J
2464.209	1.6	2735223	WORD	n/a	wordpools/wordpool_EN.txt	DIME	4	24	[0, 0, 0]	n/a	FR1	1	R1065J
2466.843	1.6	2737857	WORD	n/a	wordpools/wordpool_EN.txt	COIN	5	24	[0, 0, 0]	n/a	FR1	1	R1065J
2469.36	1.6	2740374	WORD	n/a	wordpools/wordpool_EN.txt	SPEAR	6	24	[0, 0, 0]	n/a	FR1	1	R1065J
2471.977	1.6	2742991	WORD	n/a	wordpools/wordpool_EN.txt	CONE	7	24	[0, 0, 0]	n/a	FR1	1	R1065J
2474.594	1.6	2745608	WORD	n/a	wordpools/wordpool_EN.txt	ARM	8	24	[0, 0, 0]	n/a	FR1	1	R1065J
2476.978	1.6	2747992	WORD	n/a	wordpools/wordpool_EN.txt	DRUM	9	24	[0, 0, 0]	n/a	FR1	1	R1065J
2479.528	1.6	2750542	WORD	n/a	wordpools/wordpool_EN.txt	GRAPE	10	24	[0, 0, 0]	n/a	FR1	1	R1065J
2482.145	1.6	2753159	WORD	n/a	wordpools/wordpool_EN.txt	HOSE	11	24	[0, 0, 0]	n/a	FR1	1	R1065J
2484.711	1.6	2755725	WORD	n/a	wordpools/wordpool_EN.txt	FROG	12	24	[0, 0, 0]	n/a	FR1	1	R1065J
2486.329	0.001	2757343	DISTRACT_START	n/a	n/a	n/a	-999	24	[0, 0, 0]	n/a	FR1	1	R1065J
2486.33	0.016	2757344	START	n/a	n/a	n/a	-999	24	[-999, -999, -999]	n/a	FR1	1	R1065J
2486.346	3.634	2757360	PROB	3.598	n/a	n/a	-999	24	[9, 7, 6]	22.0	FR1	1	R1065J
2489.98	2.033	2760994	PROB	2.004	n/a	n/a	-999	24	[5, 6, 4]	15.0	FR1	1	R1065J
2492.013	2.284	2763027	PROB	2.251	n/a	n/a	-999	24	[2, 5, 4]	11.0	FR1	1	R1065J
2494.297	2.15	2765311	PROB	2.127	n/a	n/a	-999	24	[2, 4, 5]	11.0	FR1	1	R1065J
2496.447	4.168	2767461	PROB	4.145	n/a	n/a	-999	24	[5, 2, 9]	16.0	FR1	1	R1065J
2500.615	1.85	2771629	PROB	1.825	n/a	n/a	-999	24	[2, 1, 1]	4.0	FR1	1	R1065J
2502.465	3.879	2773479	PROB	3.879	n/a	n/a	-999	24	[7, 7, 2]	16.0	FR1	1	R1065J
2506.344	0.004	2777358	STOP	n/a	n/a	n/a	-999	24	[-999, -999, -999]	n/a	FR1	1	R1065J
2506.348	1.068	2777362	DISTRACT_END	n/a	n/a	n/a	-999	24	[0, 0, 0]	n/a	FR1	1	R1065J
2507.416	15.115	2778430	REC_START	n/a	n/a	n/a	-999	24	[0, 0, 0]	n/a	FR1	1	R1065J
2522.531	14.895	2793546	REC_WORD_VV	15.115	n/a	<>	-999	24	[0, 0, 0]	n/a	FR1	1	R1065J
2537.426	7.211	2808441	REC_END	n/a	n/a	n/a	-999	24	[0, 0, 0]	n/a	FR1	1	R1065J
2544.637	10.0	2815652	COUNTDOWN_START	n/a	n/a	n/a	-999	25	[0, 0, 0]	n/a	FR1	1	R1065J
2544.638	10.427	2815653	TRIAL	n/a	n/a	n/a	-999	25	[0, 0, 0]	n/a	FR1	1	R1065J
2555.065	0.007	2826080	COUNTDOWN_END	n/a	n/a	n/a	-999	25	[0, 0, 0]	n/a	FR1	1	R1065J
2555.072	1.6	2826087	ORIENT	n/a	n/a	n/a	-999	25	[0, 0, 0]	n/a	FR1	1	R1065J
2557.656	1.6	2828671	WORD	n/a	wordpools/wordpool_EN.txt	TENT	1	25	[0, 0, 0]	n/a	FR1	1	R1065J
2560.273	1.6	2831288	WORD	n/a	wordpools/wordpool_EN.txt	SEA	2	25	[0, 0, 0]	n/a	FR1	1	R1065J
2562.74	1.6	2833755	WORD	n/a	wordpools/wordpool_EN.txt	TOY	3	25	[0, 0, 0]	n/a	FR1	1	R1065J
2565.257	1.6	2836272	WORD	n/a	wordpools/wordpool_EN.txt	HORN	4	25	[0, 0, 0]	n/a	FR1	1	R1065J
2567.69	1.6	2838705	WORD	n/a	wordpools/wordpool_EN.txt	OAK	5	25	[0, 0, 0]	n/a	FR1	1	R1065J
2570.274	1.6	2841289	WORD	n/a	wordpools/wordpool_EN.txt	BEACH	6	25	[0, 0, 0]	n/a	FR1	1	R1065J
2572.707	1.6	2843722	WORD	n/a	wordpools/wordpool_EN.txt	ROOF	7	25	[0, 0, 0]	n/a	FR1	1	R1065J
2575.142	1.6	2846157	WORD	n/a	wordpools/wordpool_EN.txt	WAVE	8	25	[0, 0, 0]	n/a	FR1	1	R1065J
2577.625	1.6	2848640	WORD	n/a	wordpools/wordpool_EN.txt	BOAT	9	25	[0, 0, 0]	n/a	FR1	1	R1065J
2580.209	1.6	2851224	WORD	n/a	wordpools/wordpool_EN.txt	CAVE	10	25	[0, 0, 0]	n/a	FR1	1	R1065J
2582.593	1.6	2853608	WORD	n/a	wordpools/wordpool_EN.txt	SKY	11	25	[0, 0, 0]	n/a	FR1	1	R1065J
2585.093	1.6	2856108	WORD	n/a	wordpools/wordpool_EN.txt	BRUSH	12	25	[0, 0, 0]	n/a	FR1	1	R1065J
2586.709	0.001	2857724	DISTRACT_START	n/a	n/a	n/a	-999	25	[0, 0, 0]	n/a	FR1	1	R1065J
2586.71	0.016	2857725	START	n/a	n/a	n/a	-999	25	[-999, -999, -999]	n/a	FR1	1	R1065J
2586.726	2.634	2857741	PROB	2.6	n/a	n/a	-999	25	[9, 6, 7]	22.0	FR1	1	R1065J
2589.36	3.151	2860375	PROB	3.118	n/a	n/a	-999	25	[2, 4, 1]	7.0	FR1	1	R1065J
2592.511	2.667	2863526	PROB	2.647	n/a	n/a	-999	25	[4, 1, 7]	12.0	FR1	1	R1065J
2595.178	2.034	2866193	PROB	2.004	n/a	n/a	-999	25	[5, 7, 2]	14.0	FR1	1	R1065J
2597.212	1.9	2868227	PROB	1.874	n/a	n/a	-999	25	[3, 1, 5]	9.0	FR1	1	R1065J
2599.112	2.283	2870127	PROB	2.261	n/a	n/a	-999	25	[8, 4, 5]	17.0	FR1	1	R1065J
2601.395	2.651	2872410	PROB	2.626	n/a	n/a	-999	25	[3, 8, 9]	20.0	FR1	1	R1065J
2604.046	2.217	2875061	PROB	2.191	n/a	n/a	-999	25	[9, 6, 3]	18.0	FR1	1	R1065J
2606.263	2.286	2877278	PROB	2.286	n/a	n/a	-999	25	[5, 4, 8]	17.0	FR1	1	R1065J
2608.549	0.014	2879565	STOP	n/a	n/a	n/a	-999	25	[-999, -999, -999]	n/a	FR1	1	R1065J
2608.563	1.051	2879579	DISTRACT_END	n/a	n/a	n/a	-999	25	[0, 0, 0]	n/a	FR1	1	R1065J
2609.614	2.147	2880630	REC_START	n/a	n/a	n/a	-999	25	[0, 0, 0]	n/a	FR1	1	R1065J
2611.761	2.038	2882777	REC_WORD	2.147	n/a	BEACH	-999	25	[0, 0, 0]	n/a	FR1	1	R1065J
2613.799	2.62	2884815	REC_WORD	4.185	n/a	SKY	-999	25	[0, 0, 0]	n/a	FR1	1	R1065J
2616.419	3.836	2887435	REC_WORD	6.805	n/a	WAVE	-999	25	[0, 0, 0]	n/a	FR1	1	R1065J
2620.255	19.371	2891271	REC_WORD	10.641	n/a	BOAT	-999	25	[0, 0, 0]	n/a	FR1	1	R1065J
2639.626	2.825	2910642	REC_END	n/a	n/a	n/a	-999	25	[0, 0, 0]	n/a	FR1	1	R1065J
2642.451	0.0	2913467	SESS_END	n/a	n/a	n/a	-999	25	[0, 0, 0]	n/a	FR1	1	R1065J
