onset	duration	sample	trial_type	response_time	stim_file	item_name	serialpos	list	test	answer	experiment	session	subject
0.0	14.312	56622	SESS_START	n/a	n/a	n/a	-999	-999	[0, 0, 0]	n/a	FR1	2	R1065J
14.312	10.0	70931	COUNTDOWN_START	n/a	n/a	n/a	-999	-999	[0, 0, 0]	n/a	FR1	2	R1065J
24.74	3.624	81357	COUNTDOWN_END	n/a	n/a	n/a	-999	-999	[0, 0, 0]	n/a	FR1	2	R1065J
28.364	1.6	84980	PRACTICE_WORD	n/a	n/a	CAMEL	1	-1	[0, 0, 0]	n/a	FR1	2	R1065J
30.864	1.6	87480	PRACTICE_WORD	n/a	n/a	ATTIC	2	-1	[0, 0, 0]	n/a	FR1	2	R1065J
33.298	1.6	89913	PRACTICE_WORD	n/a	n/a	RHINO	3	-1	[0, 0, 0]	n/a	FR1	2	R1065J
35.898	1.6	92513	PRACTICE_WORD	n/a	n/a	RING	4	-1	[0, 0, 0]	n/a	FR1	2	R1065J
38.382	1.6	94996	PRACTICE_WORD	n/a	n/a	WATCH	5	-1	[0, 0, 0]	n/a	FR1	2	R1065J
40.866	1.6	97480	PRACTICE_WORD	n/a	n/a	IRON	6	-1	[0, 0, 0]	n/a	FR1	2	R1065J
43.383	1.6	99996	PRACTICE_WORD	n/a	n/a	WAGON	7	-1	[0, 0, 0]	n/a	FR1	2	R1065J
45.916	1.6	102529	PRACTICE_WORD	n/a	n/a	COTTON	8	-1	[0, 0, 0]	n/a	FR1	2	R1065J
48.35	1.6	104962	PRACTICE_WORD	n/a	n/a	TONGUE	9	-1	[0, 0, 0]	n/a	FR1	2	R1065J
50.917	1.6	107529	PRACTICE_WORD	n/a	n/a	FLOOD	10	-1	[0, 0, 0]	n/a	FR1	2	R1065J
53.417	1.6	110028	PRACTICE_WORD	n/a	n/a	BEAM	11	-1	[0, 0, 0]	n/a	FR1	2	R1065J
55.868	1.6	112478	PRACTICE_WORD	n/a	n/a	CHEST	12	-1	[0, 0, 0]	n/a	FR1	2	R1065J
57.485	0.0	114095	PRACTICE_DISTRACT_START	n/a	n/a	n/a	-999	-1	[0, 0, 0]	n/a	FR1	2	R1065J
57.485	0.017	114095	START	n/a	n/a	n/a	-999	-1	[-999, -999, -999]	n/a	FR1	2	R1065J
57.502	3.068	114112	PROB	3.036	n/a	n/a	-999	-1	[7, 2, 9]	18.0	FR1	2	R1065J
60.57	1.882	117179	PROB	1.847	n/a	n/a	-999	-1	[2, 2, 1]	5.0	FR1	2	R1065J
62.452	2.067	119061	PROB	2.045	n/a	n/a	-999	-1	[6, 6, 1]	13.0	FR1	2	R1065J
64.519	2.085	121128	PROB	2.059	n/a	n/a	-999	-1	[5, 8, 6]	19.0	FR1	2	R1065J
66.604	2.299	123212	PROB	2.277	n/a	n/a	-999	-1	[9, 2, 7]	18.0	FR1	2	R1065J
68.903	2.55	125511	PROB	2.521	n/a	n/a	-999	-1	[7, 6, 4]	17.0	FR1	2	R1065J
71.453	2.067	128060	PROB	2.036	n/a	n/a	-999	-1	[9, 1, 9]	19.0	FR1	2	R1065J
73.52	2.035	130127	PROB	2.001	n/a	n/a	-999	-1	[6, 3, 1]	10.0	FR1	2	R1065J
75.555	2.99	132161	PROB	2.99	n/a	n/a	-999	-1	[9, 6, 4]	19.0	FR1	2	R1065J
78.545	0.01	135151	STOP	n/a	n/a	n/a	-999	-1	[-999, -999, -999]	n/a	FR1	2	R1065J
78.555	0.635	135161	PRACTICE_DISTRACT_END	n/a	n/a	n/a	-999	-1	[0, 0, 0]	n/a	FR1	2	R1065J
79.19	30.515	135796	PRACTICE_REC_START	n/a	n/a	n/a	-999	-1	[0, 0, 0]	n/a	FR1	2	R1065J
109.705	7.322	166304	PRACTICE_REC_END	n/a	n/a	n/a	-999	-1	[0, 0, 0]	n/a	FR1	2	R1065J
117.027	0.0	173625	TRIAL	n/a	n/a	n/a	-999	1	[0, 0, 0]	n/a	FR1	2	R1065J
117.027	10.0	173625	COUNTDOWN_START	n/a	n/a	n/a	-999	1	[0, 0, 0]	n/a	FR1	2	R1065J
127.455	0.006	184050	COUNTDOWN_END	n/a	n/a	n/a	-999	1	[0, 0, 0]	n/a	FR1	2	R1065J
127.461	1.6	184056	ORIENT	n/a	n/a	n/a	-999	1	[0, 0, 0]	n/a	FR1	2	R1065J
130.062	1.6	186657	WORD	n/a	wordpools/wordpool_EN.txt	SQUARE	1	1	[0, 0, 0]	n/a	FR1	2	R1065J
132.563	1.6	189157	WORD	n/a	wordpools/wordpool_EN.txt	BEAN	2	1	[0, 0, 0]	n/a	FR1	2	R1065J
134.946	1.6	191540	WORD	n/a	wordpools/wordpool_EN.txt	SOUP	3	1	[0, 0, 0]	n/a	FR1	2	R1065J
137.53	1.6	194123	WORD	n/a	wordpools/wordpool_EN.txt	GLASS	4	1	[0, 0, 0]	n/a	FR1	2	R1065J
139.913	1.6	196506	WORD	n/a	wordpools/wordpool_EN.txt	RUG	5	1	[0, 0, 0]	n/a	FR1	2	R1065J
142.33	1.6	198922	WORD	n/a	wordpools/wordpool_EN.txt	STREET	6	1	[0, 0, 0]	n/a	FR1	2	R1065J
144.73	1.6	201322	WORD	n/a	wordpools/wordpool_EN.txt	BOY	7	1	[0, 0, 0]	n/a	FR1	2	R1065J
147.331	1.6	203922	WORD	n/a	wordpools/wordpool_EN.txt	DITCH	8	1	[0, 0, 0]	n/a	FR1	2	R1065J
149.781	1.6	206372	WORD	n/a	wordpools/wordpool_EN.txt	STRING	9	1	[0, 0, 0]	n/a	FR1	2	R1065J
152.215	1.6	208805	WORD	n/a	wordpools/wordpool_EN.txt	TEA	10	1	[0, 0, 0]	n/a	FR1	2	R1065J
154.632	1.6	211222	WORD	n/a	wordpools/wordpool_EN.txt	DIME	11	1	[0, 0, 0]	n/a	FR1	2	R1065J
157.083	1.6	213672	WORD	n/a	wordpools/wordpool_EN.txt	KITE	12	1	[0, 0, 0]	n/a	FR1	2	R1065J
158.7	0.0	215289	DISTRACT_START	n/a	n/a	n/a	-999	1	[0, 0, 0]	n/a	FR1	2	R1065J
158.7	0.016	215289	START	n/a	n/a	n/a	-999	1	[-999, -999, -999]	n/a	FR1	2	R1065J
158.716	2.167	215305	PROB	2.139	n/a	n/a	-999	1	[1, 3, 5]	9.0	FR1	2	R1065J
160.883	2.417	217471	PROB	2.396	n/a	n/a	-999	1	[4, 9, 5]	18.0	FR1	2	R1065J
163.3	2.234	219888	PROB	2.202	n/a	n/a	-999	1	[6, 1, 3]	10.0	FR1	2	R1065J
165.534	2.117	222121	PROB	2.097	n/a	n/a	-999	1	[1, 7, 9]	17.0	FR1	2	R1065J
167.651	3.817	224238	PROB	3.787	n/a	n/a	-999	1	[8, 6, 7]	21.0	FR1	2	R1065J
171.468	2.484	228054	PROB	2.451	n/a	n/a	-999	1	[8, 4, 2]	14.0	FR1	2	R1065J
173.952	2.267	230538	PROB	2.238	n/a	n/a	-999	1	[1, 7, 3]	11.0	FR1	2	R1065J
176.219	2.579	232804	PROB	2.579	n/a	n/a	-999	1	[7, 9, 6]	22.0	FR1	2	R1065J
178.798	0.004	235383	STOP	n/a	n/a	n/a	-999	1	[-999, -999, -999]	n/a	FR1	2	R1065J
178.802	1.101	235387	DISTRACT_END	n/a	n/a	n/a	-999	1	[0, 0, 0]	n/a	FR1	2	R1065J
179.903	1.597	236487	REC_START	n/a	n/a	n/a	-999	1	[0, 0, 0]	n/a	FR1	2	R1065J
181.5	1.601	238084	REC_WORD	1.597	n/a	STRING	-999	1	[0, 0, 0]	n/a	FR1	2	R1065J
183.101	1.788	239685	REC_WORD	3.198	n/a	KITE	-999	1	[0, 0, 0]	n/a	FR1	2	R1065J
184.889	1.989	241472	REC_WORD	4.986	n/a	BEAN	-999	1	[0, 0, 0]	n/a	FR1	2	R1065J
186.878	2.923	243461	REC_WORD	6.975	n/a	BOY	-999	1	[0, 0, 0]	n/a	FR1	2	R1065J
189.801	20.116	246383	REC_WORD	9.898	n/a	SOUP	-999	1	[0, 0, 0]	n/a	FR1	2	R1065J
209.917	2.44	266495	REC_END	n/a	n/a	n/a	-999	1	[0, 0, 0]	n/a	FR1	2	R1065J
212.357	0.0	268934	TRIAL	n/a	n/a	n/a	-999	2	[0, 0, 0]	n/a	FR1	2	R1065J
212.357	10.0	268934	COUNTDOWN_START	n/a	n/a	n/a	-999	2	[0, 0, 0]	n/a	FR1	2	R1065J
222.785	0.017	279360	COUNTDOWN_END	n/a	n/a	n/a	-999	2	[0, 0, 0]	n/a	FR1	2	R1065J
222.802	1.6	279377	ORIENT	n/a	n/a	n/a	-999	2	[0, 0, 0]	n/a	FR1	2	R1065J
225.402	1.6	281977	WORD	n/a	wordpools/wordpool_EN.txt	BOARD	1	2	[0, 0, 0]	n/a	FR1	2	R1065J
227.853	1.6	284427	WORD	n/a	wordpools/wordpool_EN.txt	ARM	2	2	[0, 0, 0]	n/a	FR1	2	R1065J
230.386	1.6	286960	WORD	n/a	wordpools/wordpool_EN.txt	HOOK	3	2	[0, 0, 0]	n/a	FR1	2	R1065J
232.953	1.6	289526	WORD	n/a	wordpools/wordpool_EN.txt	VEST	4	2	[0, 0, 0]	n/a	FR1	2	R1065J
235.32	1.6	291893	WORD	n/a	wordpools/wordpool_EN.txt	SOCK	5	2	[0, 0, 0]	n/a	FR1	2	R1065J
237.904	1.6	294476	WORD	n/a	wordpools/wordpool_EN.txt	TOAST	6	2	[0, 0, 0]	n/a	FR1	2	R1065J
240.488	1.6	297060	WORD	n/a	wordpools/wordpool_EN.txt	MAT	7	2	[0, 0, 0]	n/a	FR1	2	R1065J
242.988	1.6	299559	WORD	n/a	wordpools/wordpool_EN.txt	NAIL	8	2	[0, 0, 0]	n/a	FR1	2	R1065J
245.488	1.6	302059	WORD	n/a	wordpools/wordpool_EN.txt	STOVE	9	2	[0, 0, 0]	n/a	FR1	2	R1065J
248.056	1.6	304626	WORD	n/a	wordpools/wordpool_EN.txt	ROOM	10	2	[0, 0, 0]	n/a	FR1	2	R1065J
250.523	1.6	307092	WORD	n/a	wordpools/wordpool_EN.txt	HOOF	11	2	[0, 0, 0]	n/a	FR1	2	R1065J
253.006	1.6	309575	WORD	n/a	wordpools/wordpool_EN.txt	BRUSH	12	2	[0, 0, 0]	n/a	FR1	2	R1065J
254.607	0.001	311176	DISTRACT_START	n/a	n/a	n/a	-999	2	[0, 0, 0]	n/a	FR1	2	R1065J
254.608	0.016	311177	START	n/a	n/a	n/a	-999	2	[-999, -999, -999]	n/a	FR1	2	R1065J
254.624	3.133	311193	PROB	3.108	n/a	n/a	-999	2	[7, 5, 2]	14.0	FR1	2	R1065J
257.757	2.584	314325	PROB	2.55	n/a	n/a	-999	2	[9, 8, 2]	19.0	FR1	2	R1065J
260.341	2.15	316908	PROB	2.126	n/a	n/a	-999	2	[9, 3, 8]	20.0	FR1	2	R1065J
262.491	2.118	319058	PROB	2.09	n/a	n/a	-999	2	[2, 6, 7]	15.0	FR1	2	R1065J
264.609	2.499	321175	PROB	2.475	n/a	n/a	-999	2	[6, 1, 3]	10.0	FR1	2	R1065J
267.108	2.001	323674	PROB	1.968	n/a	n/a	-999	2	[9, 9, 9]	27.0	FR1	2	R1065J
269.109	2.117	325675	PROB	2.087	n/a	n/a	-999	2	[4, 1, 3]	8.0	FR1	2	R1065J
271.226	1.966	327791	PROB	1.945	n/a	n/a	-999	2	[9, 2, 8]	19.0	FR1	2	R1065J
273.192	2.092	329757	PROB	2.092	n/a	n/a	-999	2	[8, 8, 7]	23.0	FR1	2	R1065J
275.284	0.009	331848	STOP	n/a	n/a	n/a	-999	2	[-999, -999, -999]	n/a	FR1	2	R1065J
275.293	1.217	331857	DISTRACT_END	n/a	n/a	n/a	-999	2	[0, 0, 0]	n/a	FR1	2	R1065J
276.51	1.286	333074	REC_START	n/a	n/a	n/a	-999	2	[0, 0, 0]	n/a	FR1	2	R1065J
277.796	1.023	334360	REC_WORD_VV	1.286	n/a	<>	-999	2	[0, 0, 0]	n/a	FR1	2	R1065J
278.819	2.378	335382	REC_WORD	2.309	n/a	HOOF	-999	2	[0, 0, 0]	n/a	FR1	2	R1065J
281.197	25.326	337760	REC_WORD_VV	4.687	n/a	<>	-999	2	[0, 0, 0]	n/a	FR1	2	R1065J
306.523	2.291	363081	REC_END	n/a	n/a	n/a	-999	2	[0, 0, 0]	n/a	FR1	2	R1065J
308.814	10.0	365371	COUNTDOWN_START	n/a	n/a	n/a	-999	3	[0, 0, 0]	n/a	FR1	2	R1065J
308.815	10.427	365372	TRIAL	n/a	n/a	n/a	-999	3	[0, 0, 0]	n/a	FR1	2	R1065J
319.242	0.007	375797	COUNTDOWN_END	n/a	n/a	n/a	-999	3	[0, 0, 0]	n/a	FR1	2	R1065J
319.249	1.6	375804	ORIENT	n/a	n/a	n/a	-999	3	[0, 0, 0]	n/a	FR1	2	R1065J
321.633	1.6	378187	WORD	n/a	wordpools/wordpool_EN.txt	LOCK	1	3	[0, 0, 0]	n/a	FR1	2	R1065J
324.083	1.6	380637	WORD	n/a	wordpools/wordpool_EN.txt	FOG	2	3	[0, 0, 0]	n/a	FR1	2	R1065J
326.634	1.6	383187	WORD	n/a	wordpools/wordpool_EN.txt	BRIDGE	3	3	[0, 0, 0]	n/a	FR1	2	R1065J
329.101	1.6	385654	WORD	n/a	wordpools/wordpool_EN.txt	ARK	4	3	[0, 0, 0]	n/a	FR1	2	R1065J
331.501	1.6	388053	WORD	n/a	wordpools/wordpool_EN.txt	HEART	5	3	[0, 0, 0]	n/a	FR1	2	R1065J
334.135	1.6	390687	WORD	n/a	wordpools/wordpool_EN.txt	STAIR	6	3	[0, 0, 0]	n/a	FR1	2	R1065J
336.668	1.6	393219	WORD	n/a	wordpools/wordpool_EN.txt	RAIN	7	3	[0, 0, 0]	n/a	FR1	2	R1065J
339.285	1.6	395836	WORD	n/a	wordpools/wordpool_EN.txt	CLOUD	8	3	[0, 0, 0]	n/a	FR1	2	R1065J
341.786	1.6	398336	WORD	n/a	wordpools/wordpool_EN.txt	FOAM	9	3	[0, 0, 0]	n/a	FR1	2	R1065J
344.169	1.6	400719	WORD	n/a	wordpools/wordpool_EN.txt	SAIL	10	3	[0, 0, 0]	n/a	FR1	2	R1065J
346.736	1.6	403285	WORD	n/a	wordpools/wordpool_EN.txt	CAR	11	3	[0, 0, 0]	n/a	FR1	2	R1065J
349.27	1.6	405819	WORD	n/a	wordpools/wordpool_EN.txt	STORM	12	3	[0, 0, 0]	n/a	FR1	2	R1065J
350.887	0.001	407435	DISTRACT_START	n/a	n/a	n/a	-999	3	[0, 0, 0]	n/a	FR1	2	R1065J
350.888	0.016	407436	START	n/a	n/a	n/a	-999	3	[-999, -999, -999]	n/a	FR1	2	R1065J
350.904	2.6	407452	PROB	2.569	n/a	n/a	-999	3	[1, 5, 8]	14.0	FR1	2	R1065J
353.504	1.95	410052	PROB	1.922	n/a	n/a	-999	3	[2, 1, 7]	10.0	FR1	2	R1065J
355.454	2.168	412001	PROB	2.14	n/a	n/a	-999	3	[2, 1, 7]	10.0	FR1	2	R1065J
357.622	2.666	414169	PROB	2.635	n/a	n/a	-999	3	[4, 8, 2]	14.0	FR1	2	R1065J
360.288	3.017	416834	PROB	2.993	n/a	n/a	-999	3	[4, 3, 5]	12.0	FR1	2	R1065J
363.305	1.884	419851	PROB	1.856	n/a	n/a	-999	3	[2, 1, 6]	9.0	FR1	2	R1065J
365.189	2.117	421734	PROB	2.092	n/a	n/a	-999	3	[3, 1, 9]	13.0	FR1	2	R1065J
367.306	2.268	423851	PROB	2.231	n/a	n/a	-999	3	[1, 6, 9]	16.0	FR1	2	R1065J
369.574	2.004	426118	PROB	2.004	n/a	n/a	-999	3	[7, 9, 1]	17.0	FR1	2	R1065J
371.578	0.013	428122	STOP	n/a	n/a	n/a	-999	3	[-999, -999, -999]	n/a	FR1	2	R1065J
371.591	1.05	428135	DISTRACT_END	n/a	n/a	n/a	-999	3	[0, 0, 0]	n/a	FR1	2	R1065J
372.641	1.908	429185	REC_START	n/a	n/a	n/a	-999	3	[0, 0, 0]	n/a	FR1	2	R1065J
374.549	1.818	431092	REC_WORD	1.908	n/a	FOG	-999	3	[0, 0, 0]	n/a	FR1	2	R1065J
376.367	2.163	432910	REC_WORD	3.726	n/a	CLOUD	-999	3	[0, 0, 0]	n/a	FR1	2	R1065J
378.53	3.951	435072	REC_WORD	5.889	n/a	RAIN	-999	3	[0, 0, 0]	n/a	FR1	2	R1065J
382.481	20.17	439023	REC_WORD	9.84	n/a	SAIL	-999	3	[0, 0, 0]	n/a	FR1	2	R1065J
402.651	1.86	459188	REC_END	n/a	n/a	n/a	-999	3	[0, 0, 0]	n/a	FR1	2	R1065J
404.511	0.0	461048	TRIAL	n/a	n/a	n/a	-999	4	[0, 0, 0]	n/a	FR1	2	R1065J
404.511	10.0	461048	COUNTDOWN_START	n/a	n/a	n/a	-999	4	[0, 0, 0]	n/a	FR1	2	R1065J
414.939	0.007	471474	COUNTDOWN_END	n/a	n/a	n/a	-999	4	[0, 0, 0]	n/a	FR1	2	R1065J
414.946	1.6	471481	ORIENT	n/a	n/a	n/a	-999	4	[0, 0, 0]	n/a	FR1	2	R1065J
417.463	1.6	473997	WORD	n/a	wordpools/wordpool_EN.txt	RICE	1	4	[0, 0, 0]	n/a	FR1	2	R1065J
419.947	1.6	476481	WORD	n/a	wordpools/wordpool_EN.txt	SOAP	2	4	[0, 0, 0]	n/a	FR1	2	R1065J
422.43	1.6	478963	WORD	n/a	wordpools/wordpool_EN.txt	SEA	3	4	[0, 0, 0]	n/a	FR1	2	R1065J
424.947	1.6	481480	WORD	n/a	wordpools/wordpool_EN.txt	PEACH	4	4	[0, 0, 0]	n/a	FR1	2	R1065J
427.414	1.6	483946	WORD	n/a	wordpools/wordpool_EN.txt	SKY	5	4	[0, 0, 0]	n/a	FR1	2	R1065J
429.998	1.6	486530	WORD	n/a	wordpools/wordpool_EN.txt	FARM	6	4	[0, 0, 0]	n/a	FR1	2	R1065J
432.415	1.6	488946	WORD	n/a	wordpools/wordpool_EN.txt	DART	7	4	[0, 0, 0]	n/a	FR1	2	R1065J
434.815	1.6	491346	WORD	n/a	wordpools/wordpool_EN.txt	SHEEP	8	4	[0, 0, 0]	n/a	FR1	2	R1065J
437.283	1.6	493813	WORD	n/a	wordpools/wordpool_EN.txt	LAND	9	4	[0, 0, 0]	n/a	FR1	2	R1065J
439.866	1.6	496396	WORD	n/a	wordpools/wordpool_EN.txt	SHIELD	10	4	[0, 0, 0]	n/a	FR1	2	R1065J
442.466	1.6	498995	WORD	n/a	wordpools/wordpool_EN.txt	CHIEF	11	4	[0, 0, 0]	n/a	FR1	2	R1065J
444.884	1.6	501412	WORD	n/a	wordpools/wordpool_EN.txt	SHIP	12	4	[0, 0, 0]	n/a	FR1	2	R1065J
446.501	0.0	503029	DISTRACT_START	n/a	n/a	n/a	-999	4	[0, 0, 0]	n/a	FR1	2	R1065J
446.501	0.016	503029	START	n/a	n/a	n/a	-999	4	[-999, -999, -999]	n/a	FR1	2	R1065J
446.517	3.052	503045	PROB	3.018	n/a	n/a	-999	4	[9, 7, 4]	20.0	FR1	2	R1065J
449.569	1.983	506097	PROB	1.957	n/a	n/a	-999	4	[9, 2, 8]	19.0	FR1	2	R1065J
451.552	2.166	508079	PROB	2.143	n/a	n/a	-999	4	[8, 3, 4]	15.0	FR1	2	R1065J
453.718	1.868	510245	PROB	1.833	n/a	n/a	-999	4	[1, 4, 3]	8.0	FR1	2	R1065J
455.586	2.6	512112	PROB	2.573	n/a	n/a	-999	4	[9, 1, 1]	11.0	FR1	2	R1065J
458.186	1.95	514712	PROB	1.917	n/a	n/a	-999	4	[4, 4, 4]	12.0	FR1	2	R1065J
460.136	2.05	516661	PROB	2.015	n/a	n/a	-999	4	[8, 3, 3]	14.0	FR1	2	R1065J
462.186	3.584	518711	PROB	3.557	n/a	n/a	-999	4	[9, 7, 6]	22.0	FR1	2	R1065J
465.77	2.612	522294	PROB	2.612	n/a	n/a	-999	4	[6, 8, 3]	17.0	FR1	2	R1065J
468.382	0.005	524906	STOP	n/a	n/a	n/a	-999	4	[-999, -999, -999]	n/a	FR1	2	R1065J
468.387	1.084	524911	DISTRACT_END	n/a	n/a	n/a	-999	4	[0, 0, 0]	n/a	FR1	2	R1065J
469.471	1.397	525994	REC_START	n/a	n/a	n/a	-999	4	[0, 0, 0]	n/a	FR1	2	R1065J
470.868	19.65	527391	REC_WORD_VV	1.397	n/a	<>	-999	4	[0, 0, 0]	n/a	FR1	2	R1065J
490.518	1.577	547037	REC_WORD	21.047	n/a	LAND	-999	4	[0, 0, 0]	n/a	FR1	2	R1065J
492.095	1.816	548614	REC_WORD	22.624	n/a	SKY	-999	4	[0, 0, 0]	n/a	FR1	2	R1065J
493.911	1.842	550429	REC_WORD	24.44	n/a	SEA	-999	4	[0, 0, 0]	n/a	FR1	2	R1065J
495.753	1.924	552271	REC_WORD	26.282	n/a	FARM	-999	4	[0, 0, 0]	n/a	FR1	2	R1065J
497.677	1.808	554194	REC_WORD	28.206	n/a	SHEEP	-999	4	[0, 0, 0]	n/a	FR1	2	R1065J
499.485	3.573	556002	REC_END	n/a	n/a	n/a	-999	4	[0, 0, 0]	n/a	FR1	2	R1065J
503.058	10.0	559574	COUNTDOWN_START	n/a	n/a	n/a	-999	5	[0, 0, 0]	n/a	FR1	2	R1065J
503.059	10.427	559575	TRIAL	n/a	n/a	n/a	-999	5	[0, 0, 0]	n/a	FR1	2	R1065J
513.486	0.007	570000	COUNTDOWN_END	n/a	n/a	n/a	-999	5	[0, 0, 0]	n/a	FR1	2	R1065J
513.493	1.6	570007	ORIENT	n/a	n/a	n/a	-999	5	[0, 0, 0]	n/a	FR1	2	R1065J
515.977	1.6	572491	WORD	n/a	wordpools/wordpool_EN.txt	SEAL	1	5	[0, 0, 0]	n/a	FR1	2	R1065J
518.579	1.6	575092	WORD	n/a	wordpools/wordpool_EN.txt	BAND	2	5	[0, 0, 0]	n/a	FR1	2	R1065J
520.978	1.6	577490	WORD	n/a	wordpools/wordpool_EN.txt	WORLD	3	5	[0, 0, 0]	n/a	FR1	2	R1065J
523.428	1.6	579940	WORD	n/a	wordpools/wordpool_EN.txt	FRUIT	4	5	[0, 0, 0]	n/a	FR1	2	R1065J
525.862	1.6	582373	WORD	n/a	wordpools/wordpool_EN.txt	SWORD	5	5	[0, 0, 0]	n/a	FR1	2	R1065J
528.396	1.6	584907	WORD	n/a	wordpools/wordpool_EN.txt	JAR	6	5	[0, 0, 0]	n/a	FR1	2	R1065J
530.912	1.6	587422	WORD	n/a	wordpools/wordpool_EN.txt	BREAD	7	5	[0, 0, 0]	n/a	FR1	2	R1065J
533.513	1.6	590023	WORD	n/a	wordpools/wordpool_EN.txt	CUP	8	5	[0, 0, 0]	n/a	FR1	2	R1065J
535.913	1.6	592422	WORD	n/a	wordpools/wordpool_EN.txt	WALL	9	5	[0, 0, 0]	n/a	FR1	2	R1065J
538.464	1.6	594973	WORD	n/a	wordpools/wordpool_EN.txt	STICK	10	5	[0, 0, 0]	n/a	FR1	2	R1065J
540.947	1.6	597455	WORD	n/a	wordpools/wordpool_EN.txt	ROSE	11	5	[0, 0, 0]	n/a	FR1	2	R1065J
543.398	1.6	599906	WORD	n/a	wordpools/wordpool_EN.txt	LAMP	12	5	[0, 0, 0]	n/a	FR1	2	R1065J
545.014	0.001	601521	DISTRACT_START	n/a	n/a	n/a	-999	5	[0, 0, 0]	n/a	FR1	2	R1065J
545.015	0.016	601522	START	n/a	n/a	n/a	-999	5	[-999, -999, -999]	n/a	FR1	2	R1065J
545.031	1.984	601538	PROB	1.957	n/a	n/a	-999	5	[1, 6, 1]	8.0	FR1	2	R1065J
547.015	2.75	603522	PROB	2.725	n/a	n/a	-999	5	[4, 1, 9]	14.0	FR1	2	R1065J
549.765	3.467	606271	PROB	3.439	n/a	n/a	-999	5	[4, 9, 4]	17.0	FR1	2	R1065J
553.232	1.967	609738	PROB	1.94	n/a	n/a	-999	5	[9, 9, 2]	20.0	FR1	2	R1065J
555.199	3.017	611704	PROB	2.997	n/a	n/a	-999	5	[4, 7, 6]	17.0	FR1	2	R1065J
558.216	4.318	614721	PROB	4.284	n/a	n/a	-999	5	[6, 2, 8]	16.0	FR1	2	R1065J
562.534	2.034	619038	PROB	2.006	n/a	n/a	-999	5	[7, 1, 5]	13.0	FR1	2	R1065J
564.568	3.74	621071	PROB	3.74	n/a	n/a	-999	5	[6, 8, 9]	23.0	FR1	2	R1065J
568.308	0.01	624810	STOP	n/a	n/a	n/a	-999	5	[-999, -999, -999]	n/a	FR1	2	R1065J
568.318	1.084	624820	DISTRACT_END	n/a	n/a	n/a	-999	5	[0, 0, 0]	n/a	FR1	2	R1065J
569.402	2.031	625904	REC_START	n/a	n/a	n/a	-999	5	[0, 0, 0]	n/a	FR1	2	R1065J
571.433	1.998	627935	REC_WORD	2.031	n/a	BREAD	-999	5	[0, 0, 0]	n/a	FR1	2	R1065J
573.431	2.094	629932	REC_WORD	4.029	n/a	JAR	-999	5	[0, 0, 0]	n/a	FR1	2	R1065J
575.525	3.065	632026	REC_WORD	6.123	n/a	FRUIT	-999	5	[0, 0, 0]	n/a	FR1	2	R1065J
578.59	18.491	635090	REC_WORD	9.188	n/a	CUP	-999	5	[0, 0, 0]	n/a	FR1	2	R1065J
597.081	2.331	653577	REC_WORD	27.679	n/a	BAND	-999	5	[0, 0, 0]	n/a	FR1	2	R1065J
599.412	2.027	655908	REC_END	n/a	n/a	n/a	-999	5	[0, 0, 0]	n/a	FR1	2	R1065J
601.439	0.0	657935	TRIAL	n/a	n/a	n/a	-999	6	[0, 0, 0]	n/a	FR1	2	R1065J
601.439	10.0	657935	COUNTDOWN_START	n/a	n/a	n/a	-999	6	[0, 0, 0]	n/a	FR1	2	R1065J
611.867	0.007	668360	COUNTDOWN_END	n/a	n/a	n/a	-999	6	[0, 0, 0]	n/a	FR1	2	R1065J
611.874	1.6	668367	ORIENT	n/a	n/a	n/a	-999	6	[0, 0, 0]	n/a	FR1	2	R1065J
614.291	1.6	670784	WORD	n/a	wordpools/wordpool_EN.txt	STEAK	1	6	[0, 0, 0]	n/a	FR1	2	R1065J
616.908	1.6	673400	WORD	n/a	wordpools/wordpool_EN.txt	GOLD	2	6	[0, 0, 0]	n/a	FR1	2	R1065J
619.525	1.6	676017	WORD	n/a	wordpools/wordpool_EN.txt	PRINCE	3	6	[0, 0, 0]	n/a	FR1	2	R1065J
622.059	1.6	678550	WORD	n/a	wordpools/wordpool_EN.txt	BOAT	4	6	[0, 0, 0]	n/a	FR1	2	R1065J
624.476	1.6	680967	WORD	n/a	wordpools/wordpool_EN.txt	TRAIN	5	6	[0, 0, 0]	n/a	FR1	2	R1065J
627.009	1.6	683499	WORD	n/a	wordpools/wordpool_EN.txt	JET	6	6	[0, 0, 0]	n/a	FR1	2	R1065J
629.594	1.6	686084	WORD	n/a	wordpools/wordpool_EN.txt	PEARL	7	6	[0, 0, 0]	n/a	FR1	2	R1065J
632.077	1.6	688566	WORD	n/a	wordpools/wordpool_EN.txt	TOOTH	8	6	[0, 0, 0]	n/a	FR1	2	R1065J
634.527	1.6	691016	WORD	n/a	wordpools/wordpool_EN.txt	SHRIMP	9	6	[0, 0, 0]	n/a	FR1	2	R1065J
637.028	1.6	693516	WORD	n/a	wordpools/wordpool_EN.txt	CROWN	10	6	[0, 0, 0]	n/a	FR1	2	R1065J
639.461	1.6	695949	WORD	n/a	wordpools/wordpool_EN.txt	FISH	11	6	[0, 0, 0]	n/a	FR1	2	R1065J
642.028	1.6	698515	WORD	n/a	wordpools/wordpool_EN.txt	SLIME	12	6	[0, 0, 0]	n/a	FR1	2	R1065J
643.645	0.001	700132	DISTRACT_START	n/a	n/a	n/a	-999	6	[0, 0, 0]	n/a	FR1	2	R1065J
643.646	0.016	700133	START	n/a	n/a	n/a	-999	6	[-999, -999, -999]	n/a	FR1	2	R1065J
643.662	2.784	700149	PROB	2.756	n/a	n/a	-999	6	[6, 5, 5]	16.0	FR1	2	R1065J
646.446	2.168	702932	PROB	2.133	n/a	n/a	-999	6	[3, 2, 9]	14.0	FR1	2	R1065J
648.614	2.432	705100	PROB	2.403	n/a	n/a	-999	6	[4, 3, 5]	12.0	FR1	2	R1065J
651.046	2.518	707531	PROB	2.492	n/a	n/a	-999	6	[8, 7, 3]	18.0	FR1	2	R1065J
653.564	1.966	710049	PROB	1.941	n/a	n/a	-999	6	[2, 6, 6]	14.0	FR1	2	R1065J
655.53	2.951	712014	PROB	2.927	n/a	n/a	-999	6	[3, 8, 9]	20.0	FR1	2	R1065J
658.481	2.316	714964	PROB	2.288	n/a	n/a	-999	6	[8, 8, 3]	19.0	FR1	2	R1065J
660.797	2.084	717280	PROB	2.052	n/a	n/a	-999	6	[3, 4, 1]	8.0	FR1	2	R1065J
662.881	1.952	719364	PROB	1.952	n/a	n/a	-999	6	[7, 1, 4]	12.0	FR1	2	R1065J
664.833	0.015	721315	STOP	n/a	n/a	n/a	-999	6	[-999, -999, -999]	n/a	FR1	2	R1065J
664.848	1.134	721330	DISTRACT_END	n/a	n/a	n/a	-999	6	[0, 0, 0]	n/a	FR1	2	R1065J
665.982	2.593	722464	REC_START	n/a	n/a	n/a	-999	6	[0, 0, 0]	n/a	FR1	2	R1065J
668.575	1.697	725056	REC_WORD	2.593	n/a	GOLD	-999	6	[0, 0, 0]	n/a	FR1	2	R1065J
670.272	2.383	726753	REC_WORD	4.29	n/a	CROWN	-999	6	[0, 0, 0]	n/a	FR1	2	R1065J
672.655	12.95	729136	REC_WORD	6.673	n/a	PRINCE	-999	6	[0, 0, 0]	n/a	FR1	2	R1065J
685.605	10.394	742083	REC_WORD	19.623	n/a	SEAL	-999	6	[0, 0, 0]	n/a	FR1	2	R1065J
695.999	3.187	752475	REC_END	n/a	n/a	n/a	-999	6	[0, 0, 0]	n/a	FR1	2	R1065J
699.186	10.0	755661	COUNTDOWN_START	n/a	n/a	n/a	-999	7	[0, 0, 0]	n/a	FR1	2	R1065J
699.187	10.427	755662	TRIAL	n/a	n/a	n/a	-999	7	[0, 0, 0]	n/a	FR1	2	R1065J
709.614	0.008	766087	COUNTDOWN_END	n/a	n/a	n/a	-999	7	[0, 0, 0]	n/a	FR1	2	R1065J
709.622	1.6	766095	ORIENT	n/a	n/a	n/a	-999	7	[0, 0, 0]	n/a	FR1	2	R1065J
712.005	1.6	768477	WORD	n/a	wordpools/wordpool_EN.txt	FOX	1	7	[0, 0, 0]	n/a	FR1	2	R1065J
714.589	1.6	771061	WORD	n/a	wordpools/wordpool_EN.txt	LAMB	2	7	[0, 0, 0]	n/a	FR1	2	R1065J
717.189	1.6	773660	WORD	n/a	wordpools/wordpool_EN.txt	TAIL	3	7	[0, 0, 0]	n/a	FR1	2	R1065J
719.59	1.6	776061	WORD	n/a	wordpools/wordpool_EN.txt	SPEAR	4	7	[0, 0, 0]	n/a	FR1	2	R1065J
722.056	1.6	778526	WORD	n/a	wordpools/wordpool_EN.txt	GATE	5	7	[0, 0, 0]	n/a	FR1	2	R1065J
724.574	1.6	781044	WORD	n/a	wordpools/wordpool_EN.txt	PEAR	6	7	[0, 0, 0]	n/a	FR1	2	R1065J
727.174	1.6	783643	WORD	n/a	wordpools/wordpool_EN.txt	PIT	7	7	[0, 0, 0]	n/a	FR1	2	R1065J
729.774	1.6	786242	WORD	n/a	wordpools/wordpool_EN.txt	CLIFF	8	7	[0, 0, 0]	n/a	FR1	2	R1065J
732.358	1.6	788826	WORD	n/a	wordpools/wordpool_EN.txt	CALF	9	7	[0, 0, 0]	n/a	FR1	2	R1065J
734.975	1.6	791442	WORD	n/a	wordpools/wordpool_EN.txt	ROCK	10	7	[0, 0, 0]	n/a	FR1	2	R1065J
737.559	1.6	794026	WORD	n/a	wordpools/wordpool_EN.txt	MOLE	11	7	[0, 0, 0]	n/a	FR1	2	R1065J
740.009	1.6	796475	WORD	n/a	wordpools/wordpool_EN.txt	FROG	12	7	[0, 0, 0]	n/a	FR1	2	R1065J
741.627	0.001	798093	DISTRACT_START	n/a	n/a	n/a	-999	7	[0, 0, 0]	n/a	FR1	2	R1065J
741.628	0.014	798094	START	n/a	n/a	n/a	-999	7	[-999, -999, -999]	n/a	FR1	2	R1065J
741.642	4.985	798108	PROB	4.958	n/a	n/a	-999	7	[4, 9, 8]	21.0	FR1	2	R1065J
746.627	2.016	803092	PROB	1.989	n/a	n/a	-999	7	[5, 1, 4]	10.0	FR1	2	R1065J
748.643	2.001	805108	PROB	1.98	n/a	n/a	-999	7	[9, 1, 4]	14.0	FR1	2	R1065J
750.644	1.816	807108	PROB	1.786	n/a	n/a	-999	7	[1, 5, 3]	9.0	FR1	2	R1065J
752.46	2.718	808924	PROB	2.691	n/a	n/a	-999	7	[9, 2, 1]	12.0	FR1	2	R1065J
755.178	1.883	811641	PROB	1.86	n/a	n/a	-999	7	[8, 1, 5]	14.0	FR1	2	R1065J
757.061	2.485	813524	PROB	2.458	n/a	n/a	-999	7	[2, 3, 5]	10.0	FR1	2	R1065J
759.546	2.244	816008	PROB	2.244	n/a	n/a	-999	7	[6, 1, 5]	12.0	FR1	2	R1065J
761.79	0.005	818252	STOP	n/a	n/a	n/a	-999	7	[-999, -999, -999]	n/a	FR1	2	R1065J
761.795	1.101	818257	DISTRACT_END	n/a	n/a	n/a	-999	7	[0, 0, 0]	n/a	FR1	2	R1065J
762.896	2.251	819357	REC_START	n/a	n/a	n/a	-999	7	[0, 0, 0]	n/a	FR1	2	R1065J
765.147	2.697	821608	REC_WORD	2.251	n/a	FOX	-999	7	[0, 0, 0]	n/a	FR1	2	R1065J
767.844	2.366	824304	REC_WORD	4.948	n/a	MOLE	-999	7	[0, 0, 0]	n/a	FR1	2	R1065J
770.21	3.43	826670	REC_WORD	7.314	n/a	LAMB	-999	7	[0, 0, 0]	n/a	FR1	2	R1065J
773.64	15.659	830099	REC_WORD	10.744	n/a	CLIFF	-999	7	[0, 0, 0]	n/a	FR1	2	R1065J
789.299	3.608	845755	REC_WORD	26.403	n/a	SPEAR	-999	7	[0, 0, 0]	n/a	FR1	2	R1065J
792.907	1.859	849362	REC_END	n/a	n/a	n/a	-999	7	[0, 0, 0]	n/a	FR1	2	R1065J
794.766	10.0	851221	COUNTDOWN_START	n/a	n/a	n/a	-999	8	[0, 0, 0]	n/a	FR1	2	R1065J
794.767	10.427	851222	TRIAL	n/a	n/a	n/a	-999	8	[0, 0, 0]	n/a	FR1	2	R1065J
805.194	0.007	861647	COUNTDOWN_END	n/a	n/a	n/a	-999	8	[0, 0, 0]	n/a	FR1	2	R1065J
805.201	1.6	861654	ORIENT	n/a	n/a	n/a	-999	8	[0, 0, 0]	n/a	FR1	2	R1065J
807.668	1.6	864120	WORD	n/a	wordpools/wordpool_EN.txt	TRUCK	1	8	[0, 0, 0]	n/a	FR1	2	R1065J
810.269	1.6	866721	WORD	n/a	wordpools/wordpool_EN.txt	TIE	2	8	[0, 0, 0]	n/a	FR1	2	R1065J
812.752	1.6	869203	WORD	n/a	wordpools/wordpool_EN.txt	WEED	3	8	[0, 0, 0]	n/a	FR1	2	R1065J
815.369	1.6	871819	WORD	n/a	wordpools/wordpool_EN.txt	HOUSE	4	8	[0, 0, 0]	n/a	FR1	2	R1065J
817.77	1.6	874220	WORD	n/a	wordpools/wordpool_EN.txt	CHEEK	5	8	[0, 0, 0]	n/a	FR1	2	R1065J
820.154	1.6	876603	WORD	n/a	wordpools/wordpool_EN.txt	CLOCK	6	8	[0, 0, 0]	n/a	FR1	2	R1065J
822.537	1.6	878986	WORD	n/a	wordpools/wordpool_EN.txt	DOCK	7	8	[0, 0, 0]	n/a	FR1	2	R1065J
824.937	1.6	881385	WORD	n/a	wordpools/wordpool_EN.txt	BENCH	8	8	[0, 0, 0]	n/a	FR1	2	R1065J
827.438	1.6	883886	WORD	n/a	wordpools/wordpool_EN.txt	LAWN	9	8	[0, 0, 0]	n/a	FR1	2	R1065J
829.822	1.6	886269	WORD	n/a	wordpools/wordpool_EN.txt	BOX	10	8	[0, 0, 0]	n/a	FR1	2	R1065J
832.372	1.6	888819	WORD	n/a	wordpools/wordpool_EN.txt	ROAD	11	8	[0, 0, 0]	n/a	FR1	2	R1065J
834.772	1.6	891218	WORD	n/a	wordpools/wordpool_EN.txt	PANTS	12	8	[0, 0, 0]	n/a	FR1	2	R1065J
836.389	0.001	892835	DISTRACT_START	n/a	n/a	n/a	-999	8	[0, 0, 0]	n/a	FR1	2	R1065J
836.39	0.016	892836	START	n/a	n/a	n/a	-999	8	[-999, -999, -999]	n/a	FR1	2	R1065J
836.406	3.084	892852	PROB	3.063	n/a	n/a	-999	8	[7, 2, 9]	18.0	FR1	2	R1065J
839.49	1.85	895935	PROB	1.826	n/a	n/a	-999	8	[1, 3, 2]	6.0	FR1	2	R1065J
841.34	2.383	897785	PROB	2.352	n/a	n/a	-999	8	[3, 6, 9]	18.0	FR1	2	R1065J
843.723	1.967	900167	PROB	1.937	n/a	n/a	-999	8	[7, 1, 9]	17.0	FR1	2	R1065J
845.69	2.951	902134	PROB	2.923	n/a	n/a	-999	8	[6, 7, 7]	20.0	FR1	2	R1065J
848.641	2.567	905084	PROB	2.531	n/a	n/a	-999	8	[3, 4, 6]	13.0	FR1	2	R1065J
851.208	2.217	907651	PROB	2.188	n/a	n/a	-999	8	[2, 3, 2]	7.0	FR1	2	R1065J
853.425	1.967	909867	PROB	1.931	n/a	n/a	-999	8	[9, 8, 5]	22.0	FR1	2	R1065J
855.392	2.348	911834	PROB	2.348	n/a	n/a	-999	8	[1, 9, 6]	16.0	FR1	2	R1065J
857.74	0.019	914182	STOP	n/a	n/a	n/a	-999	8	[-999, -999, -999]	n/a	FR1	2	R1065J
857.759	1.201	914201	DISTRACT_END	n/a	n/a	n/a	-999	8	[0, 0, 0]	n/a	FR1	2	R1065J
858.96	2.067	915401	REC_START	n/a	n/a	n/a	-999	8	[0, 0, 0]	n/a	FR1	2	R1065J
861.027	1.705	917468	REC_WORD	2.067	n/a	LAWN	-999	8	[0, 0, 0]	n/a	FR1	2	R1065J
862.732	1.996	919172	REC_WORD	3.772	n/a	TRUCK	-999	8	[0, 0, 0]	n/a	FR1	2	R1065J
864.728	2.37	921168	REC_WORD	5.768	n/a	WEED	-999	8	[0, 0, 0]	n/a	FR1	2	R1065J
867.098	3.45	923538	REC_WORD	8.138	n/a	ROAD	-999	8	[0, 0, 0]	n/a	FR1	2	R1065J
870.548	9.449	926987	REC_WORD	11.588	n/a	TIE	-999	8	[0, 0, 0]	n/a	FR1	2	R1065J
879.997	8.975	936434	REC_WORD	21.037	n/a	CLOCK	-999	8	[0, 0, 0]	n/a	FR1	2	R1065J
888.972	3.025	945407	REC_END	n/a	n/a	n/a	-999	8	[0, 0, 0]	n/a	FR1	2	R1065J
891.997	0.0	948431	TRIAL	n/a	n/a	n/a	-999	9	[0, 0, 0]	n/a	FR1	2	R1065J
891.997	10.0	948431	COUNTDOWN_START	n/a	n/a	n/a	-999	9	[0, 0, 0]	n/a	FR1	2	R1065J
902.425	0.007	958857	COUNTDOWN_END	n/a	n/a	n/a	-999	9	[0, 0, 0]	n/a	FR1	2	R1065J
902.432	1.6	958864	ORIENT	n/a	n/a	n/a	-999	9	[0, 0, 0]	n/a	FR1	2	R1065J
904.865	1.6	961297	WORD	n/a	wordpools/wordpool_EN.txt	FORT	1	9	[0, 0, 0]	n/a	FR1	2	R1065J
907.483	1.6	963914	WORD	n/a	wordpools/wordpool_EN.txt	MOON	2	9	[0, 0, 0]	n/a	FR1	2	R1065J
910.083	1.6	966513	WORD	n/a	wordpools/wordpool_EN.txt	FILM	3	9	[0, 0, 0]	n/a	FR1	2	R1065J
912.568	1.6	968998	WORD	n/a	wordpools/wordpool_EN.txt	INK	4	9	[0, 0, 0]	n/a	FR1	2	R1065J
914.984	1.6	971413	WORD	n/a	wordpools/wordpool_EN.txt	POLE	5	9	[0, 0, 0]	n/a	FR1	2	R1065J
917.484	1.6	973913	WORD	n/a	wordpools/wordpool_EN.txt	JUDGE	6	9	[0, 0, 0]	n/a	FR1	2	R1065J
919.918	1.6	976346	WORD	n/a	wordpools/wordpool_EN.txt	CASH	7	9	[0, 0, 0]	n/a	FR1	2	R1065J
922.334	1.6	978762	WORD	n/a	wordpools/wordpool_EN.txt	SHEET	8	9	[0, 0, 0]	n/a	FR1	2	R1065J
924.885	1.6	981312	WORD	n/a	wordpools/wordpool_EN.txt	MAIL	9	9	[0, 0, 0]	n/a	FR1	2	R1065J
927.385	1.6	983812	WORD	n/a	wordpools/wordpool_EN.txt	NET	10	9	[0, 0, 0]	n/a	FR1	2	R1065J
929.986	1.6	986412	WORD	n/a	wordpools/wordpool_EN.txt	TOAD	11	9	[0, 0, 0]	n/a	FR1	2	R1065J
932.386	1.6	988812	WORD	n/a	wordpools/wordpool_EN.txt	PEA	12	9	[0, 0, 0]	n/a	FR1	2	R1065J
934.003	0.001	990428	DISTRACT_START	n/a	n/a	n/a	-999	9	[0, 0, 0]	n/a	FR1	2	R1065J
934.004	0.016	990429	START	n/a	n/a	n/a	-999	9	[-999, -999, -999]	n/a	FR1	2	R1065J
934.02	2.601	990445	PROB	2.566	n/a	n/a	-999	9	[9, 2, 2]	13.0	FR1	2	R1065J
936.621	2.599	993046	PROB	2.565	n/a	n/a	-999	9	[8, 4, 9]	21.0	FR1	2	R1065J
939.22	2.1	995644	PROB	2.078	n/a	n/a	-999	9	[4, 3, 8]	15.0	FR1	2	R1065J
941.32	2.801	997744	PROB	2.778	n/a	n/a	-999	9	[3, 8, 5]	16.0	FR1	2	R1065J
944.121	3.701	1000544	PROB	3.672	n/a	n/a	-999	9	[6, 9, 5]	20.0	FR1	2	R1065J
947.822	1.95	1004245	PROB	1.915	n/a	n/a	-999	9	[1, 9, 5]	15.0	FR1	2	R1065J
949.772	3.234	1006194	PROB	3.205	n/a	n/a	-999	9	[7, 6, 6]	20.0	FR1	2	R1065J
953.006	2.259	1009427	PROB	2.259	n/a	n/a	-999	9	[2, 2, 6]	10.0	FR1	2	R1065J
955.265	0.008	1011686	STOP	n/a	n/a	n/a	-999	9	[-999, -999, -999]	n/a	FR1	2	R1065J
955.273	1.2	1011694	DISTRACT_END	n/a	n/a	n/a	-999	9	[0, 0, 0]	n/a	FR1	2	R1065J
956.473	4.298	1012894	REC_START	n/a	n/a	n/a	-999	9	[0, 0, 0]	n/a	FR1	2	R1065J
960.771	7.464	1017191	REC_WORD	4.298	n/a	TOAD	-999	9	[0, 0, 0]	n/a	FR1	2	R1065J
968.235	1.48	1024653	REC_WORD	11.762	n/a	MOON	-999	9	[0, 0, 0]	n/a	FR1	2	R1065J
969.715	16.775	1026133	REC_WORD	13.242	n/a	FILM	-999	9	[0, 0, 0]	n/a	FR1	2	R1065J
986.49	3.421	1042904	REC_END	n/a	n/a	n/a	-999	9	[0, 0, 0]	n/a	FR1	2	R1065J
989.911	0.0	1046325	TRIAL	n/a	n/a	n/a	-999	10	[0, 0, 0]	n/a	FR1	2	R1065J
989.911	10.0	1046325	COUNTDOWN_START	n/a	n/a	n/a	-999	10	[0, 0, 0]	n/a	FR1	2	R1065J
1000.339	0.007	1056750	COUNTDOWN_END	n/a	n/a	n/a	-999	10	[0, 0, 0]	n/a	FR1	2	R1065J
1000.346	1.6	1056757	ORIENT	n/a	n/a	n/a	-999	10	[0, 0, 0]	n/a	FR1	2	R1065J
1002.813	1.6	1059224	WORD	n/a	wordpools/wordpool_EN.txt	FUR	1	10	[0, 0, 0]	n/a	FR1	2	R1065J
1005.33	1.6	1061740	WORD	n/a	wordpools/wordpool_EN.txt	BANK	2	10	[0, 0, 0]	n/a	FR1	2	R1065J
1007.947	1.6	1064357	WORD	n/a	wordpools/wordpool_EN.txt	COUCH	3	10	[0, 0, 0]	n/a	FR1	2	R1065J
1010.497	1.6	1066906	WORD	n/a	wordpools/wordpool_EN.txt	CROW	4	10	[0, 0, 0]	n/a	FR1	2	R1065J
1012.964	1.6	1069373	WORD	n/a	wordpools/wordpool_EN.txt	CART	5	10	[0, 0, 0]	n/a	FR1	2	R1065J
1015.431	1.6	1071839	WORD	n/a	wordpools/wordpool_EN.txt	SNAKE	6	10	[0, 0, 0]	n/a	FR1	2	R1065J
1017.932	1.6	1074340	WORD	n/a	wordpools/wordpool_EN.txt	SKUNK	7	10	[0, 0, 0]	n/a	FR1	2	R1065J
1020.382	1.6	1076789	WORD	n/a	wordpools/wordpool_EN.txt	WAND	8	10	[0, 0, 0]	n/a	FR1	2	R1065J
1022.782	1.6	1079189	WORD	n/a	wordpools/wordpool_EN.txt	SHIRT	9	10	[0, 0, 0]	n/a	FR1	2	R1065J
1025.266	1.6	1081672	WORD	n/a	wordpools/wordpool_EN.txt	RAT	10	10	[0, 0, 0]	n/a	FR1	2	R1065J
1027.866	1.6	1084272	WORD	n/a	wordpools/wordpool_EN.txt	DOLL	11	10	[0, 0, 0]	n/a	FR1	2	R1065J
1030.333	1.6	1086738	WORD	n/a	wordpools/wordpool_EN.txt	BED	12	10	[0, 0, 0]	n/a	FR1	2	R1065J
1031.95	0.001	1088355	DISTRACT_START	n/a	n/a	n/a	-999	10	[0, 0, 0]	n/a	FR1	2	R1065J
1031.951	0.016	1088356	START	n/a	n/a	n/a	-999	10	[-999, -999, -999]	n/a	FR1	2	R1065J
1031.967	3.517	1088372	PROB	3.488	n/a	n/a	-999	10	[5, 8, 4]	17.0	FR1	2	R1065J
1035.484	2.517	1091888	PROB	2.483	n/a	n/a	-999	10	[5, 9, 9]	23.0	FR1	2	R1065J
1038.001	1.817	1094405	PROB	1.782	n/a	n/a	-999	10	[3, 6, 2]	11.0	FR1	2	R1065J
1039.818	2.55	1096221	PROB	2.517	n/a	n/a	-999	10	[6, 9, 9]	24.0	FR1	2	R1065J
1042.368	2.984	1098771	PROB	2.959	n/a	n/a	-999	10	[9, 9, 3]	21.0	FR1	2	R1065J
1045.352	2.584	1101754	PROB	2.559	n/a	n/a	-999	10	[2, 7, 8]	17.0	FR1	2	R1065J
1047.936	1.85	1104337	PROB	1.815	n/a	n/a	-999	10	[5, 3, 3]	11.0	FR1	2	R1065J
1049.786	3.205	1106187	PROB	3.205	n/a	n/a	-999	10	[4, 2, 6]	12.0	FR1	2	R1065J
1052.991	0.012	1109391	STOP	n/a	n/a	n/a	-999	10	[-999, -999, -999]	n/a	FR1	2	R1065J
1053.003	1.084	1109403	DISTRACT_END	n/a	n/a	n/a	-999	10	[0, 0, 0]	n/a	FR1	2	R1065J
1054.087	8.679	1110487	REC_START	n/a	n/a	n/a	-999	10	[0, 0, 0]	n/a	FR1	2	R1065J
1062.766	3.902	1119164	REC_WORD	8.679	n/a	SNAKE	-999	10	[0, 0, 0]	n/a	FR1	2	R1065J
1066.668	6.598	1123065	REC_WORD	12.581	n/a	CROW	-999	10	[0, 0, 0]	n/a	FR1	2	R1065J
1073.266	1.531	1129662	REC_WORD	19.179	n/a	RAT	-999	10	[0, 0, 0]	n/a	FR1	2	R1065J
1074.797	9.305	1131193	REC_WORD_VV	20.71	n/a	<>	-999	10	[0, 0, 0]	n/a	FR1	2	R1065J
1084.102	3.206	1140496	REC_END	n/a	n/a	n/a	-999	10	[0, 0, 0]	n/a	FR1	2	R1065J
1087.308	0.0	1143701	TRIAL	n/a	n/a	n/a	-999	11	[0, 0, 0]	n/a	FR1	2	R1065J
1087.308	10.0	1143701	COUNTDOWN_START	n/a	n/a	n/a	-999	11	[0, 0, 0]	n/a	FR1	2	R1065J
1097.736	0.007	1154127	COUNTDOWN_END	n/a	n/a	n/a	-999	11	[0, 0, 0]	n/a	FR1	2	R1065J
1097.743	1.6	1154134	ORIENT	n/a	n/a	n/a	-999	11	[0, 0, 0]	n/a	FR1	2	R1065J
1100.16	1.6	1156550	WORD	n/a	wordpools/wordpool_EN.txt	SIGN	1	11	[0, 0, 0]	n/a	FR1	2	R1065J
1102.727	1.6	1159117	WORD	n/a	wordpools/wordpool_EN.txt	SKI	2	11	[0, 0, 0]	n/a	FR1	2	R1065J
1105.127	1.6	1161516	WORD	n/a	wordpools/wordpool_EN.txt	FLEA	3	11	[0, 0, 0]	n/a	FR1	2	R1065J
1107.562	1.6	1163951	WORD	n/a	wordpools/wordpool_EN.txt	PIN	4	11	[0, 0, 0]	n/a	FR1	2	R1065J
1110.144	1.6	1166532	WORD	n/a	wordpools/wordpool_EN.txt	ROPE	5	11	[0, 0, 0]	n/a	FR1	2	R1065J
1112.596	1.6	1168984	WORD	n/a	wordpools/wordpool_EN.txt	SHOE	6	11	[0, 0, 0]	n/a	FR1	2	R1065J
1115.212	1.6	1171599	WORD	n/a	wordpools/wordpool_EN.txt	RIB	7	11	[0, 0, 0]	n/a	FR1	2	R1065J
1117.712	1.6	1174099	WORD	n/a	wordpools/wordpool_EN.txt	MUD	8	11	[0, 0, 0]	n/a	FR1	2	R1065J
1120.33	1.6	1176716	WORD	n/a	wordpools/wordpool_EN.txt	BATH	9	11	[0, 0, 0]	n/a	FR1	2	R1065J
1122.946	1.6	1179332	WORD	n/a	wordpools/wordpool_EN.txt	FOOT	10	11	[0, 0, 0]	n/a	FR1	2	R1065J
1125.548	1.6	1181933	WORD	n/a	wordpools/wordpool_EN.txt	HAWK	11	11	[0, 0, 0]	n/a	FR1	2	R1065J
1128.147	1.6	1184532	WORD	n/a	wordpools/wordpool_EN.txt	CHIN	12	11	[0, 0, 0]	n/a	FR1	2	R1065J
1129.764	0.001	1186148	DISTRACT_START	n/a	n/a	n/a	-999	11	[0, 0, 0]	n/a	FR1	2	R1065J
1129.765	0.016	1186149	START	n/a	n/a	n/a	-999	11	[-999, -999, -999]	n/a	FR1	2	R1065J
1129.781	2.768	1186165	PROB	2.735	n/a	n/a	-999	11	[4, 8, 4]	16.0	FR1	2	R1065J
1132.549	2.749	1188933	PROB	2.727	n/a	n/a	-999	11	[8, 7, 1]	16.0	FR1	2	R1065J
1135.298	2.067	1191681	PROB	2.034	n/a	n/a	-999	11	[8, 5, 7]	20.0	FR1	2	R1065J
1137.365	2.001	1193748	PROB	1.976	n/a	n/a	-999	11	[4, 6, 9]	19.0	FR1	2	R1065J
1139.366	1.966	1195748	PROB	1.942	n/a	n/a	-999	11	[3, 7, 8]	18.0	FR1	2	R1065J
1141.332	5.985	1197714	PROB	5.96	n/a	n/a	-999	11	[9, 8, 8]	25.0	FR1	2	R1065J
1147.317	2.703	1203698	PROB	2.703	n/a	n/a	-999	11	[4, 7, 8]	19.0	FR1	2	R1065J
1150.02	0.014	1206400	STOP	n/a	n/a	n/a	-999	11	[-999, -999, -999]	n/a	FR1	2	R1065J
1150.034	1.2	1206414	DISTRACT_END	n/a	n/a	n/a	-999	11	[0, 0, 0]	n/a	FR1	2	R1065J
1151.234	2.676	1207614	REC_START	n/a	n/a	n/a	-999	11	[0, 0, 0]	n/a	FR1	2	R1065J
1153.91	1.508	1210289	REC_WORD	2.676	n/a	BATH	-999	11	[0, 0, 0]	n/a	FR1	2	R1065J
1155.418	2.061	1211797	REC_WORD	4.184	n/a	MUD	-999	11	[0, 0, 0]	n/a	FR1	2	R1065J
1157.479	2.313	1213857	REC_WORD	6.245	n/a	FOOT	-999	11	[0, 0, 0]	n/a	FR1	2	R1065J
1159.792	1.098	1216170	REC_WORD	8.558	n/a	SKI	-999	11	[0, 0, 0]	n/a	FR1	2	R1065J
1160.89	20.357	1217268	REC_WORD	9.656	n/a	FLEA	-999	11	[0, 0, 0]	n/a	FR1	2	R1065J
1181.247	4.309	1237620	REC_END	n/a	n/a	n/a	-999	11	[0, 0, 0]	n/a	FR1	2	R1065J
1185.556	0.0	1241928	TRIAL	n/a	n/a	n/a	-999	12	[0, 0, 0]	n/a	FR1	2	R1065J
1185.556	10.0	1241928	COUNTDOWN_START	n/a	n/a	n/a	-999	12	[0, 0, 0]	n/a	FR1	2	R1065J
1195.984	0.006	1252354	COUNTDOWN_END	n/a	n/a	n/a	-999	12	[0, 0, 0]	n/a	FR1	2	R1065J
1195.99	1.6	1252360	ORIENT	n/a	n/a	n/a	-999	12	[0, 0, 0]	n/a	FR1	2	R1065J
1198.524	1.6	1254894	WORD	n/a	wordpools/wordpool_EN.txt	BARN	1	12	[0, 0, 0]	n/a	FR1	2	R1065J
1200.991	1.6	1257360	WORD	n/a	wordpools/wordpool_EN.txt	LAKE	2	12	[0, 0, 0]	n/a	FR1	2	R1065J
1203.592	1.6	1259961	WORD	n/a	wordpools/wordpool_EN.txt	CRANE	3	12	[0, 0, 0]	n/a	FR1	2	R1065J
1206.225	1.6	1262593	WORD	n/a	wordpools/wordpool_EN.txt	CANE	4	12	[0, 0, 0]	n/a	FR1	2	R1065J
1208.792	1.6	1265160	WORD	n/a	wordpools/wordpool_EN.txt	HEN	5	12	[0, 0, 0]	n/a	FR1	2	R1065J
1211.259	1.6	1267626	WORD	n/a	wordpools/wordpool_EN.txt	GRASS	6	12	[0, 0, 0]	n/a	FR1	2	R1065J
1213.876	1.6	1270242	WORD	n/a	wordpools/wordpool_EN.txt	JEEP	7	12	[0, 0, 0]	n/a	FR1	2	R1065J
1216.293	1.6	1272659	WORD	n/a	wordpools/wordpool_EN.txt	CORN	8	12	[0, 0, 0]	n/a	FR1	2	R1065J
1218.877	1.6	1275242	WORD	n/a	wordpools/wordpool_EN.txt	HILL	9	12	[0, 0, 0]	n/a	FR1	2	R1065J
1221.444	1.6	1277809	WORD	n/a	wordpools/wordpool_EN.txt	SLEEVE	10	12	[0, 0, 0]	n/a	FR1	2	R1065J
1224.061	1.6	1280425	WORD	n/a	wordpools/wordpool_EN.txt	OAR	11	12	[0, 0, 0]	n/a	FR1	2	R1065J
1226.612	1.6	1282976	WORD	n/a	wordpools/wordpool_EN.txt	TENT	12	12	[0, 0, 0]	n/a	FR1	2	R1065J
1228.228	0.001	1284591	DISTRACT_START	n/a	n/a	n/a	-999	12	[0, 0, 0]	n/a	FR1	2	R1065J
1228.229	0.016	1284592	START	n/a	n/a	n/a	-999	12	[-999, -999, -999]	n/a	FR1	2	R1065J
1228.245	2.55	1284608	PROB	2.525	n/a	n/a	-999	12	[3, 2, 7]	12.0	FR1	2	R1065J
1230.795	3.05	1287158	PROB	3.023	n/a	n/a	-999	12	[7, 9, 7]	25.0	FR1	2	R1065J
1233.845	2.968	1290207	PROB	2.933	n/a	n/a	-999	12	[7, 7, 6]	20.0	FR1	2	R1065J
1236.813	1.983	1293175	PROB	1.948	n/a	n/a	-999	12	[4, 1, 8]	13.0	FR1	2	R1065J
1238.796	2.667	1295157	PROB	2.637	n/a	n/a	-999	12	[9, 7, 5]	21.0	FR1	2	R1065J
1241.463	3.284	1297824	PROB	3.259	n/a	n/a	-999	12	[7, 8, 6]	21.0	FR1	2	R1065J
1244.747	2.234	1301107	PROB	2.207	n/a	n/a	-999	12	[2, 5, 9]	16.0	FR1	2	R1065J
1246.981	2.061	1303341	PROB	2.061	n/a	n/a	-999	12	[5, 4, 7]	16.0	FR1	2	R1065J
1249.042	0.006	1305401	STOP	n/a	n/a	n/a	-999	12	[-999, -999, -999]	n/a	FR1	2	R1065J
1249.048	1.201	1305407	DISTRACT_END	n/a	n/a	n/a	-999	12	[0, 0, 0]	n/a	FR1	2	R1065J
1250.249	2.565	1306608	REC_START	n/a	n/a	n/a	-999	12	[0, 0, 0]	n/a	FR1	2	R1065J
1252.814	2.295	1309172	REC_WORD	2.565	n/a	BARN	-999	12	[0, 0, 0]	n/a	FR1	2	R1065J
1255.109	2.2	1311467	REC_WORD	4.86	n/a	LAWN	-999	12	[0, 0, 0]	n/a	FR1	2	R1065J
1257.309	3.31	1313666	REC_WORD	7.06	n/a	CRANE	-999	12	[0, 0, 0]	n/a	FR1	2	R1065J
1260.619	3.487	1316976	REC_WORD	10.37	n/a	HEN	-999	12	[0, 0, 0]	n/a	FR1	2	R1065J
1264.106	12.991	1320462	REC_WORD	13.857	n/a	CANE	-999	12	[0, 0, 0]	n/a	FR1	2	R1065J
1277.097	2.407	1333450	REC_WORD	26.848	n/a	GRASS	-999	12	[0, 0, 0]	n/a	FR1	2	R1065J
1279.504	0.757	1335857	REC_WORD_VV	29.255	n/a	<>	-999	12	[0, 0, 0]	n/a	FR1	2	R1065J
1280.261	28.662	1336613	REC_END	n/a	n/a	n/a	-999	12	[0, 0, 0]	n/a	FR1	2	R1065J
1308.923	10.0	1365269	COUNTDOWN_START	n/a	n/a	n/a	-999	13	[0, 0, 0]	n/a	FR1	2	R1065J
1308.923	10.428	1365269	TRIAL	n/a	n/a	n/a	-999	13	[0, 0, 0]	n/a	FR1	2	R1065J
1319.351	0.007	1375695	COUNTDOWN_END	n/a	n/a	n/a	-999	13	[0, 0, 0]	n/a	FR1	2	R1065J
1319.358	1.6	1375702	ORIENT	n/a	n/a	n/a	-999	13	[0, 0, 0]	n/a	FR1	2	R1065J
1321.841	1.6	1378185	WORD	n/a	wordpools/wordpool_EN.txt	YARD	1	13	[0, 0, 0]	n/a	FR1	2	R1065J
1324.358	1.6	1380701	WORD	n/a	wordpools/wordpool_EN.txt	HORN	2	13	[0, 0, 0]	n/a	FR1	2	R1065J
1326.909	1.6	1383252	WORD	n/a	wordpools/wordpool_EN.txt	MOOSE	3	13	[0, 0, 0]	n/a	FR1	2	R1065J
1329.309	1.6	1385651	WORD	n/a	wordpools/wordpool_EN.txt	GUARD	4	13	[0, 0, 0]	n/a	FR1	2	R1065J
1331.843	1.6	1388185	WORD	n/a	wordpools/wordpool_EN.txt	SPOON	5	13	[0, 0, 0]	n/a	FR1	2	R1065J
1334.443	1.6	1390784	WORD	n/a	wordpools/wordpool_EN.txt	PALM	6	13	[0, 0, 0]	n/a	FR1	2	R1065J
1336.877	1.6	1393218	WORD	n/a	wordpools/wordpool_EN.txt	GOAT	7	13	[0, 0, 0]	n/a	FR1	2	R1065J
1339.494	1.6	1395834	WORD	n/a	wordpools/wordpool_EN.txt	SINK	8	13	[0, 0, 0]	n/a	FR1	2	R1065J
1342.061	1.6	1398400	WORD	n/a	wordpools/wordpool_EN.txt	HAT	9	13	[0, 0, 0]	n/a	FR1	2	R1065J
1344.612	1.6	1400951	WORD	n/a	wordpools/wordpool_EN.txt	SMILE	10	13	[0, 0, 0]	n/a	FR1	2	R1065J
1346.995	1.6	1403333	WORD	n/a	wordpools/wordpool_EN.txt	HOLE	11	13	[0, 0, 0]	n/a	FR1	2	R1065J
1349.546	1.6	1405884	WORD	n/a	wordpools/wordpool_EN.txt	LIP	12	13	[0, 0, 0]	n/a	FR1	2	R1065J
1351.162	0.001	1407500	DISTRACT_START	n/a	n/a	n/a	-999	13	[0, 0, 0]	n/a	FR1	2	R1065J
1351.163	0.016	1407501	START	n/a	n/a	n/a	-999	13	[-999, -999, -999]	n/a	FR1	2	R1065J
1351.179	2.8	1407517	PROB	2.779	n/a	n/a	-999	13	[1, 9, 7]	17.0	FR1	2	R1065J
1353.979	1.884	1410316	PROB	1.851	n/a	n/a	-999	13	[6, 1, 5]	12.0	FR1	2	R1065J
1355.863	1.817	1412200	PROB	1.792	n/a	n/a	-999	13	[5, 4, 7]	16.0	FR1	2	R1065J
1357.68	2.333	1414016	PROB	2.31	n/a	n/a	-999	13	[6, 3, 7]	16.0	FR1	2	R1065J
1360.013	2.434	1416349	PROB	2.41	n/a	n/a	-999	13	[6, 7, 6]	19.0	FR1	2	R1065J
1362.447	2.617	1418782	PROB	2.591	n/a	n/a	-999	13	[1, 4, 2]	7.0	FR1	2	R1065J
1365.064	2.084	1421399	PROB	2.054	n/a	n/a	-999	13	[6, 3, 5]	14.0	FR1	2	R1065J
1367.148	2.05	1423482	PROB	2.019	n/a	n/a	-999	13	[8, 5, 5]	18.0	FR1	2	R1065J
1369.198	2.28	1425532	PROB	2.28	n/a	n/a	-999	13	[1, 7, 8]	16.0	FR1	2	R1065J
1371.478	0.003	1427811	STOP	n/a	n/a	n/a	-999	13	[-999, -999, -999]	n/a	FR1	2	R1065J
1371.481	1.051	1427814	DISTRACT_END	n/a	n/a	n/a	-999	13	[0, 0, 0]	n/a	FR1	2	R1065J
1372.532	2.609	1428865	REC_START	n/a	n/a	n/a	-999	13	[0, 0, 0]	n/a	FR1	2	R1065J
1375.141	2.428	1431474	REC_WORD	2.609	n/a	SMILE	-999	13	[0, 0, 0]	n/a	FR1	2	R1065J
1377.569	2.673	1433901	REC_WORD	5.037	n/a	LIP	-999	13	[0, 0, 0]	n/a	FR1	2	R1065J
1380.242	22.304	1436573	REC_WORD	7.71	n/a	MOOSE	-999	13	[0, 0, 0]	n/a	FR1	2	R1065J
1402.546	7.958	1458873	REC_END	n/a	n/a	n/a	-999	13	[0, 0, 0]	n/a	FR1	2	R1065J
1410.504	0.0	1466829	TRIAL	n/a	n/a	n/a	-999	14	[0, 0, 0]	n/a	FR1	2	R1065J
1410.504	10.0	1466829	COUNTDOWN_START	n/a	n/a	n/a	-999	14	[0, 0, 0]	n/a	FR1	2	R1065J
1420.932	0.007	1477255	COUNTDOWN_END	n/a	n/a	n/a	-999	14	[0, 0, 0]	n/a	FR1	2	R1065J
1420.939	1.6	1477262	ORIENT	n/a	n/a	n/a	-999	14	[0, 0, 0]	n/a	FR1	2	R1065J
1423.456	1.6	1479778	WORD	n/a	wordpools/wordpool_EN.txt	BRICK	1	14	[0, 0, 0]	n/a	FR1	2	R1065J
1425.873	1.6	1482195	WORD	n/a	wordpools/wordpool_EN.txt	WEB	2	14	[0, 0, 0]	n/a	FR1	2	R1065J
1428.49	1.6	1484811	WORD	n/a	wordpools/wordpool_EN.txt	TANK	3	14	[0, 0, 0]	n/a	FR1	2	R1065J
1430.907	1.6	1487228	WORD	n/a	wordpools/wordpool_EN.txt	SCHOOL	4	14	[0, 0, 0]	n/a	FR1	2	R1065J
1433.324	1.6	1489644	WORD	n/a	wordpools/wordpool_EN.txt	MAP	5	14	[0, 0, 0]	n/a	FR1	2	R1065J
1435.924	1.6	1492244	WORD	n/a	wordpools/wordpool_EN.txt	KEY	6	14	[0, 0, 0]	n/a	FR1	2	R1065J
1438.491	1.6	1494810	WORD	n/a	wordpools/wordpool_EN.txt	BALL	7	14	[0, 0, 0]	n/a	FR1	2	R1065J
1440.975	1.6	1497294	WORD	n/a	wordpools/wordpool_EN.txt	SHARK	8	14	[0, 0, 0]	n/a	FR1	2	R1065J
1443.492	1.6	1499810	WORD	n/a	wordpools/wordpool_EN.txt	COIN	9	14	[0, 0, 0]	n/a	FR1	2	R1065J
1446.092	1.6	1502410	WORD	n/a	wordpools/wordpool_EN.txt	FLOOR	10	14	[0, 0, 0]	n/a	FR1	2	R1065J
1448.709	1.6	1505026	WORD	n/a	wordpools/wordpool_EN.txt	TOE	11	14	[0, 0, 0]	n/a	FR1	2	R1065J
1451.243	1.6	1507559	WORD	n/a	wordpools/wordpool_EN.txt	FAN	12	14	[0, 0, 0]	n/a	FR1	2	R1065J
1452.86	0.001	1509176	DISTRACT_START	n/a	n/a	n/a	-999	14	[0, 0, 0]	n/a	FR1	2	R1065J
1452.861	0.015	1509177	START	n/a	n/a	n/a	-999	14	[-999, -999, -999]	n/a	FR1	2	R1065J
1452.876	3.601	1509192	PROB	3.576	n/a	n/a	-999	14	[4, 2, 4]	8.0	FR1	2	R1065J
1456.477	3.951	1512792	PROB	3.927	n/a	n/a	-999	14	[4, 2, 2]	8.0	FR1	2	R1065J
1460.428	1.983	1516743	PROB	1.959	n/a	n/a	-999	14	[5, 7, 3]	15.0	FR1	2	R1065J
1462.411	1.717	1518725	PROB	1.681	n/a	n/a	-999	14	[1, 1, 5]	7.0	FR1	2	R1065J
1464.128	2.25	1520442	PROB	2.228	n/a	n/a	-999	14	[6, 5, 3]	14.0	FR1	2	R1065J
1466.378	2.151	1522691	PROB	2.13	n/a	n/a	-999	14	[3, 9, 7]	19.0	FR1	2	R1065J
1468.529	2.4	1524842	PROB	2.379	n/a	n/a	-999	14	[3, 8, 3]	14.0	FR1	2	R1065J
1470.929	2.242	1527241	PROB	2.242	n/a	n/a	-999	14	[9, 4, 3]	16.0	FR1	2	R1065J
1473.171	0.008	1529483	STOP	n/a	n/a	n/a	-999	14	[-999, -999, -999]	n/a	FR1	2	R1065J
1473.179	1.218	1529491	DISTRACT_END	n/a	n/a	n/a	-999	14	[0, 0, 0]	n/a	FR1	2	R1065J
1474.397	1.945	1530709	REC_START	n/a	n/a	n/a	-999	14	[0, 0, 0]	n/a	FR1	2	R1065J
1476.342	1.716	1532653	REC_WORD	1.945	n/a	SCHOOL	-999	14	[0, 0, 0]	n/a	FR1	2	R1065J
1478.058	2.063	1534369	REC_WORD	3.661	n/a	WEB	-999	14	[0, 0, 0]	n/a	FR1	2	R1065J
1480.121	3.554	1536431	REC_WORD	5.724	n/a	FLOOR	-999	14	[0, 0, 0]	n/a	FR1	2	R1065J
1483.675	20.734	1539985	REC_WORD	9.278	n/a	KEY	-999	14	[0, 0, 0]	n/a	FR1	2	R1065J
1504.409	3.259	1560714	REC_END	n/a	n/a	n/a	-999	14	[0, 0, 0]	n/a	FR1	2	R1065J
1507.668	0.0	1563973	TRIAL	n/a	n/a	n/a	-999	15	[0, 0, 0]	n/a	FR1	2	R1065J
1507.668	10.0	1563973	COUNTDOWN_START	n/a	n/a	n/a	-999	15	[0, 0, 0]	n/a	FR1	2	R1065J
1518.096	0.006	1574398	COUNTDOWN_END	n/a	n/a	n/a	-999	15	[0, 0, 0]	n/a	FR1	2	R1065J
1518.102	1.6	1574404	ORIENT	n/a	n/a	n/a	-999	15	[0, 0, 0]	n/a	FR1	2	R1065J
1520.587	1.6	1576889	WORD	n/a	wordpools/wordpool_EN.txt	WOOD	1	15	[0, 0, 0]	n/a	FR1	2	R1065J
1523.103	1.6	1579404	WORD	n/a	wordpools/wordpool_EN.txt	PASTE	2	15	[0, 0, 0]	n/a	FR1	2	R1065J
1525.554	1.6	1581855	WORD	n/a	wordpools/wordpool_EN.txt	FORK	3	15	[0, 0, 0]	n/a	FR1	2	R1065J
1528.137	1.6	1584437	WORD	n/a	wordpools/wordpool_EN.txt	PLATE	4	15	[0, 0, 0]	n/a	FR1	2	R1065J
1530.704	1.6	1587004	WORD	n/a	wordpools/wordpool_EN.txt	CHALK	5	15	[0, 0, 0]	n/a	FR1	2	R1065J
1533.121	1.6	1589420	WORD	n/a	wordpools/wordpool_EN.txt	STONE	6	15	[0, 0, 0]	n/a	FR1	2	R1065J
1535.655	1.6	1591954	WORD	n/a	wordpools/wordpool_EN.txt	CLOTH	7	15	[0, 0, 0]	n/a	FR1	2	R1065J
1538.205	1.6	1594503	WORD	n/a	wordpools/wordpool_EN.txt	BLUSH	8	15	[0, 0, 0]	n/a	FR1	2	R1065J
1540.59	1.6	1596888	WORD	n/a	wordpools/wordpool_EN.txt	GLOVE	9	15	[0, 0, 0]	n/a	FR1	2	R1065J
1543.089	1.6	1599386	WORD	n/a	wordpools/wordpool_EN.txt	TOOL	10	15	[0, 0, 0]	n/a	FR1	2	R1065J
1545.673	1.6	1601970	WORD	n/a	wordpools/wordpool_EN.txt	AXE	11	15	[0, 0, 0]	n/a	FR1	2	R1065J
1548.273	1.6	1604569	WORD	n/a	wordpools/wordpool_EN.txt	VASE	12	15	[0, 0, 0]	n/a	FR1	2	R1065J
1549.89	0.001	1606186	DISTRACT_START	n/a	n/a	n/a	-999	15	[0, 0, 0]	n/a	FR1	2	R1065J
1549.891	0.016	1606187	START	n/a	n/a	n/a	-999	15	[-999, -999, -999]	n/a	FR1	2	R1065J
1549.907	2.668	1606203	PROB	2.639	n/a	n/a	-999	15	[6, 6, 3]	15.0	FR1	2	R1065J
1552.575	3.05	1608870	PROB	3.019	n/a	n/a	-999	15	[3, 2, 9]	14.0	FR1	2	R1065J
1555.625	2.016	1611919	PROB	1.985	n/a	n/a	-999	15	[5, 4, 4]	14.0	FR1	2	R1065J
1557.641	2.301	1613935	PROB	2.264	n/a	n/a	-999	15	[3, 2, 2]	7.0	FR1	2	R1065J
1559.942	3.317	1616236	PROB	3.291	n/a	n/a	-999	15	[7, 4, 9]	20.0	FR1	2	R1065J
1563.259	2.167	1619552	PROB	2.134	n/a	n/a	-999	15	[1, 7, 8]	16.0	FR1	2	R1065J
1565.426	2.984	1621718	PROB	2.959	n/a	n/a	-999	15	[7, 5, 6]	18.0	FR1	2	R1065J
1568.41	2.351	1624702	PROB	2.351	n/a	n/a	-999	15	[3, 2, 9]	14.0	FR1	2	R1065J
1570.761	0.015	1627052	STOP	n/a	n/a	n/a	-999	15	[-999, -999, -999]	n/a	FR1	2	R1065J
1570.776	1.168	1627067	DISTRACT_END	n/a	n/a	n/a	-999	15	[0, 0, 0]	n/a	FR1	2	R1065J
1571.944	2.554	1628235	REC_START	n/a	n/a	n/a	-999	15	[0, 0, 0]	n/a	FR1	2	R1065J
1574.498	2.22	1630789	REC_WORD	2.554	n/a	TOOL	-999	15	[0, 0, 0]	n/a	FR1	2	R1065J
1576.718	2.308	1633008	REC_WORD	4.774	n/a	AXE	-999	15	[0, 0, 0]	n/a	FR1	2	R1065J
1579.026	3.495	1635316	REC_WORD	7.082	n/a	FORK	-999	15	[0, 0, 0]	n/a	FR1	2	R1065J
1582.521	19.183	1638810	REC_WORD	10.577	n/a	PLATE	-999	15	[0, 0, 0]	n/a	FR1	2	R1065J
1601.704	0.252	1657989	REC_WORD	29.76	n/a	BLUSH	-999	15	[0, 0, 0]	n/a	FR1	2	R1065J
1601.956	4.692	1658241	REC_END	n/a	n/a	n/a	-999	15	[0, 0, 0]	n/a	FR1	2	R1065J
1606.648	0.0	1662932	TRIAL	n/a	n/a	n/a	-999	16	[0, 0, 0]	n/a	FR1	2	R1065J
1606.648	10.0	1662932	COUNTDOWN_START	n/a	n/a	n/a	-999	16	[0, 0, 0]	n/a	FR1	2	R1065J
1617.076	0.007	1673358	COUNTDOWN_END	n/a	n/a	n/a	-999	16	[0, 0, 0]	n/a	FR1	2	R1065J
1617.083	1.6	1673365	ORIENT	n/a	n/a	n/a	-999	16	[0, 0, 0]	n/a	FR1	2	R1065J
1619.568	1.6	1675849	WORD	n/a	wordpools/wordpool_EN.txt	BEAR	1	16	[0, 0, 0]	n/a	FR1	2	R1065J
1622.117	1.6	1678397	WORD	n/a	wordpools/wordpool_EN.txt	WING	2	16	[0, 0, 0]	n/a	FR1	2	R1065J
1624.718	1.6	1680998	WORD	n/a	wordpools/wordpool_EN.txt	DOOR	3	16	[0, 0, 0]	n/a	FR1	2	R1065J
1627.118	1.6	1683397	WORD	n/a	wordpools/wordpool_EN.txt	PLANT	4	16	[0, 0, 0]	n/a	FR1	2	R1065J
1629.535	1.6	1685814	WORD	n/a	wordpools/wordpool_EN.txt	ROOT	5	16	[0, 0, 0]	n/a	FR1	2	R1065J
1632.035	1.6	1688313	WORD	n/a	wordpools/wordpool_EN.txt	LEAF	6	16	[0, 0, 0]	n/a	FR1	2	R1065J
1634.636	1.6	1690914	WORD	n/a	wordpools/wordpool_EN.txt	SNOW	7	16	[0, 0, 0]	n/a	FR1	2	R1065J
1637.253	1.6	1693530	WORD	n/a	wordpools/wordpool_EN.txt	BLOOM	8	16	[0, 0, 0]	n/a	FR1	2	R1065J
1639.736	1.6	1696013	WORD	n/a	wordpools/wordpool_EN.txt	STRAW	9	16	[0, 0, 0]	n/a	FR1	2	R1065J
1642.153	1.6	1698429	WORD	n/a	wordpools/wordpool_EN.txt	BUSH	10	16	[0, 0, 0]	n/a	FR1	2	R1065J
1644.787	1.6	1701063	WORD	n/a	wordpools/wordpool_EN.txt	BRANCH	11	16	[0, 0, 0]	n/a	FR1	2	R1065J
1647.287	1.6	1703562	WORD	n/a	wordpools/wordpool_EN.txt	TOY	12	16	[0, 0, 0]	n/a	FR1	2	R1065J
1648.904	0.001	1705179	DISTRACT_START	n/a	n/a	n/a	-999	16	[0, 0, 0]	n/a	FR1	2	R1065J
1648.905	0.016	1705180	START	n/a	n/a	n/a	-999	16	[-999, -999, -999]	n/a	FR1	2	R1065J
1648.921	2.984	1705196	PROB	2.957	n/a	n/a	-999	16	[9, 9, 8]	26.0	FR1	2	R1065J
1651.905	1.833	1708179	PROB	1.805	n/a	n/a	-999	16	[2, 3, 1]	6.0	FR1	2	R1065J
1653.738	2.617	1710012	PROB	2.588	n/a	n/a	-999	16	[5, 6, 6]	16.0	FR1	2	R1065J
1656.355	2.067	1712628	PROB	2.044	n/a	n/a	-999	16	[1, 3, 5]	9.0	FR1	2	R1065J
1658.422	1.784	1714695	PROB	1.761	n/a	n/a	-999	16	[1, 6, 6]	13.0	FR1	2	R1065J
1660.206	1.8	1716478	PROB	1.768	n/a	n/a	-999	16	[1, 2, 2]	5.0	FR1	2	R1065J
1662.006	1.884	1718278	PROB	1.848	n/a	n/a	-999	16	[9, 1, 4]	14.0	FR1	2	R1065J
1663.89	2.25	1720162	PROB	2.228	n/a	n/a	-999	16	[1, 7, 8]	16.0	FR1	2	R1065J
1666.14	1.934	1722411	PROB	1.906	n/a	n/a	-999	16	[5, 6, 2]	13.0	FR1	2	R1065J
1668.074	2.1	1724345	PROB	2.1	n/a	n/a	-999	16	[7, 8, 3]	18.0	FR1	2	R1065J
1670.174	0.017	1726444	STOP	n/a	n/a	n/a	-999	16	[-999, -999, -999]	n/a	FR1	2	R1065J
1670.191	1.2	1726461	DISTRACT_END	n/a	n/a	n/a	-999	16	[0, 0, 0]	n/a	FR1	2	R1065J
1671.391	1.864	1727661	REC_START	n/a	n/a	n/a	-999	16	[0, 0, 0]	n/a	FR1	2	R1065J
1673.255	2.107	1729525	REC_WORD	1.864	n/a	PLANT	-999	16	[0, 0, 0]	n/a	FR1	2	R1065J
1675.362	2.503	1731631	REC_WORD	3.971	n/a	BRANCH	-999	16	[0, 0, 0]	n/a	FR1	2	R1065J
1677.865	2.242	1734134	REC_WORD	6.474	n/a	BLOOM	-999	16	[0, 0, 0]	n/a	FR1	2	R1065J
1680.107	2.849	1736375	REC_WORD	8.716	n/a	ROOT	-999	16	[0, 0, 0]	n/a	FR1	2	R1065J
1682.956	3.935	1739224	REC_WORD	11.565	n/a	STEM	-999	16	[0, 0, 0]	n/a	FR1	2	R1065J
1686.891	10.37	1743158	REC_WORD	15.5	n/a	BUSH	-999	16	[0, 0, 0]	n/a	FR1	2	R1065J
1697.261	4.147	1753526	REC_WORD	25.87	n/a	STRAW	-999	16	[0, 0, 0]	n/a	FR1	2	R1065J
1701.408	2.404	1757672	REC_END	n/a	n/a	n/a	-999	16	[0, 0, 0]	n/a	FR1	2	R1065J
1703.812	10.0	1760075	COUNTDOWN_START	n/a	n/a	n/a	-999	17	[0, 0, 0]	n/a	FR1	2	R1065J
1703.812	10.428	1760075	TRIAL	n/a	n/a	n/a	-999	17	[0, 0, 0]	n/a	FR1	2	R1065J
1714.24	0.007	1770501	COUNTDOWN_END	n/a	n/a	n/a	-999	17	[0, 0, 0]	n/a	FR1	2	R1065J
1714.247	1.6	1770508	ORIENT	n/a	n/a	n/a	-999	17	[0, 0, 0]	n/a	FR1	2	R1065J
1716.764	1.6	1773025	WORD	n/a	wordpools/wordpool_EN.txt	BROOM	1	17	[0, 0, 0]	n/a	FR1	2	R1065J
1719.248	1.6	1775508	WORD	n/a	wordpools/wordpool_EN.txt	DRESS	2	17	[0, 0, 0]	n/a	FR1	2	R1065J
1721.798	1.6	1778057	WORD	n/a	wordpools/wordpool_EN.txt	OAK	3	17	[0, 0, 0]	n/a	FR1	2	R1065J
1724.232	1.6	1780491	WORD	n/a	wordpools/wordpool_EN.txt	ROOF	4	17	[0, 0, 0]	n/a	FR1	2	R1065J
1726.682	1.6	1782940	WORD	n/a	wordpools/wordpool_EN.txt	HORSE	5	17	[0, 0, 0]	n/a	FR1	2	R1065J
1729.282	1.6	1785540	WORD	n/a	wordpools/wordpool_EN.txt	RAKE	6	17	[0, 0, 0]	n/a	FR1	2	R1065J
1731.883	1.6	1788140	WORD	n/a	wordpools/wordpool_EN.txt	WHALE	7	17	[0, 0, 0]	n/a	FR1	2	R1065J
1734.366	1.6	1790623	WORD	n/a	wordpools/wordpool_EN.txt	DRUM	8	17	[0, 0, 0]	n/a	FR1	2	R1065J
1736.967	1.6	1793223	WORD	n/a	wordpools/wordpool_EN.txt	BAG	9	17	[0, 0, 0]	n/a	FR1	2	R1065J
1739.501	1.6	1795757	WORD	n/a	wordpools/wordpool_EN.txt	FLAG	10	17	[0, 0, 0]	n/a	FR1	2	R1065J
1742.051	1.6	1798306	WORD	n/a	wordpools/wordpool_EN.txt	CLOWN	11	17	[0, 0, 0]	n/a	FR1	2	R1065J
1744.569	1.6	1800824	WORD	n/a	wordpools/wordpool_EN.txt	PARK	12	17	[0, 0, 0]	n/a	FR1	2	R1065J
1746.185	0.001	1802439	DISTRACT_START	n/a	n/a	n/a	-999	17	[0, 0, 0]	n/a	FR1	2	R1065J
1746.186	0.015	1802440	START	n/a	n/a	n/a	-999	17	[-999, -999, -999]	n/a	FR1	2	R1065J
1746.201	2.517	1802455	PROB	2.491	n/a	n/a	-999	17	[2, 5, 4]	11.0	FR1	2	R1065J
1748.718	2.101	1804972	PROB	2.077	n/a	n/a	-999	17	[5, 3, 7]	15.0	FR1	2	R1065J
1750.819	2.933	1807072	PROB	2.905	n/a	n/a	-999	17	[1, 5, 9]	15.0	FR1	2	R1065J
1753.752	1.967	1810005	PROB	1.932	n/a	n/a	-999	17	[6, 1, 3]	10.0	FR1	2	R1065J
1755.719	2.684	1811971	PROB	2.653	n/a	n/a	-999	17	[8, 1, 2]	11.0	FR1	2	R1065J
1758.403	2.284	1814655	PROB	2.248	n/a	n/a	-999	17	[6, 4, 6]	16.0	FR1	2	R1065J
1760.687	1.633	1816938	PROB	1.605	n/a	n/a	-999	17	[1, 1, 1]	3.0	FR1	2	R1065J
1762.32	2.434	1818571	PROB	2.412	n/a	n/a	-999	17	[1, 3, 3]	7.0	FR1	2	R1065J
1764.754	2.233	1821004	PROB	2.233	n/a	n/a	-999	17	[7, 6, 7]	19.0	FR1	2	R1065J
1766.987	0.017	1823237	STOP	n/a	n/a	n/a	-999	17	[-999, -999, -999]	n/a	FR1	2	R1065J
1767.004	1.118	1823254	DISTRACT_END	n/a	n/a	n/a	-999	17	[0, 0, 0]	n/a	FR1	2	R1065J
1768.122	2.393	1824372	REC_START	n/a	n/a	n/a	-999	17	[0, 0, 0]	n/a	FR1	2	R1065J
1770.515	2.878	1826764	REC_WORD_VV	2.393	n/a	<>	-999	17	[0, 0, 0]	n/a	FR1	2	R1065J
1773.393	24.741	1829642	REC_WORD	5.271	n/a	ROOF	-999	17	[0, 0, 0]	n/a	FR1	2	R1065J
1798.134	11.593	1854377	REC_END	n/a	n/a	n/a	-999	17	[0, 0, 0]	n/a	FR1	2	R1065J
1809.727	10.0	1865968	COUNTDOWN_START	n/a	n/a	n/a	-999	18	[0, 0, 0]	n/a	FR1	2	R1065J
1809.728	10.427	1865969	TRIAL	n/a	n/a	n/a	-999	18	[0, 0, 0]	n/a	FR1	2	R1065J
1820.155	0.007	1876394	COUNTDOWN_END	n/a	n/a	n/a	-999	18	[0, 0, 0]	n/a	FR1	2	R1065J
1820.162	1.6	1876401	ORIENT	n/a	n/a	n/a	-999	18	[0, 0, 0]	n/a	FR1	2	R1065J
1822.746	1.6	1878984	WORD	n/a	wordpools/wordpool_EN.txt	FLAME	1	18	[0, 0, 0]	n/a	FR1	2	R1065J
1825.212	1.6	1881450	WORD	n/a	wordpools/wordpool_EN.txt	SPARK	2	18	[0, 0, 0]	n/a	FR1	2	R1065J
1827.63	1.6	1883867	WORD	n/a	wordpools/wordpool_EN.txt	LEG	3	18	[0, 0, 0]	n/a	FR1	2	R1065J
1830.013	1.6	1886250	WORD	n/a	wordpools/wordpool_EN.txt	BOWL	4	18	[0, 0, 0]	n/a	FR1	2	R1065J
1832.464	1.6	1888700	WORD	n/a	wordpools/wordpool_EN.txt	PURSE	5	18	[0, 0, 0]	n/a	FR1	2	R1065J
1834.947	1.6	1891183	WORD	n/a	wordpools/wordpool_EN.txt	NOSE	6	18	[0, 0, 0]	n/a	FR1	2	R1065J
1837.381	1.6	1893616	WORD	n/a	wordpools/wordpool_EN.txt	FACE	7	18	[0, 0, 0]	n/a	FR1	2	R1065J
1839.765	1.6	1896000	WORD	n/a	wordpools/wordpool_EN.txt	EEL	8	18	[0, 0, 0]	n/a	FR1	2	R1065J
1842.332	1.6	1898566	WORD	n/a	wordpools/wordpool_EN.txt	HOSE	9	18	[0, 0, 0]	n/a	FR1	2	R1065J
1844.915	1.6	1901149	WORD	n/a	wordpools/wordpool_EN.txt	CHAIR	10	18	[0, 0, 0]	n/a	FR1	2	R1065J
1847.432	1.6	1903665	WORD	n/a	wordpools/wordpool_EN.txt	SEAT	11	18	[0, 0, 0]	n/a	FR1	2	R1065J
1849.833	1.6	1906065	WORD	n/a	wordpools/wordpool_EN.txt	SUIT	12	18	[0, 0, 0]	n/a	FR1	2	R1065J
1851.45	0.0	1907682	DISTRACT_START	n/a	n/a	n/a	-999	18	[0, 0, 0]	n/a	FR1	2	R1065J
1851.45	0.016	1907682	START	n/a	n/a	n/a	-999	18	[-999, -999, -999]	n/a	FR1	2	R1065J
1851.466	2.884	1907698	PROB	2.863	n/a	n/a	-999	18	[4, 5, 4]	14.0	FR1	2	R1065J
1854.35	2.6	1910582	PROB	2.571	n/a	n/a	-999	18	[8, 3, 3]	14.0	FR1	2	R1065J
1856.95	1.784	1913181	PROB	1.763	n/a	n/a	-999	18	[1, 8, 6]	15.0	FR1	2	R1065J
1858.734	2.25	1914965	PROB	2.227	n/a	n/a	-999	18	[8, 3, 6]	17.0	FR1	2	R1065J
1860.984	2.017	1917214	PROB	1.993	n/a	n/a	-999	18	[5, 3, 9]	17.0	FR1	2	R1065J
1863.001	3.234	1919231	PROB	3.2	n/a	n/a	-999	18	[8, 3, 1]	12.0	FR1	2	R1065J
1866.235	2.284	1922464	PROB	2.262	n/a	n/a	-999	18	[8, 4, 9]	22.0	FR1	2	R1065J
1868.519	2.833	1924748	PROB	2.81	n/a	n/a	-999	18	[3, 2, 5]	10.0	FR1	2	R1065J
1871.352	2.057	1927580	PROB	2.057	n/a	n/a	-999	18	[1, 5, 3]	9.0	FR1	2	R1065J
1873.409	0.01	1929637	STOP	n/a	n/a	n/a	-999	18	[-999, -999, -999]	n/a	FR1	2	R1065J
1873.419	1.135	1929647	DISTRACT_END	n/a	n/a	n/a	-999	18	[0, 0, 0]	n/a	FR1	2	R1065J
1874.554	2.471	1930781	REC_START	n/a	n/a	n/a	-999	18	[0, 0, 0]	n/a	FR1	2	R1065J
1877.025	2.27	1933252	REC_WORD	2.471	n/a	FACE	-999	18	[0, 0, 0]	n/a	FR1	2	R1065J
1879.295	1.97	1935521	REC_WORD	4.741	n/a	NOSE	-999	18	[0, 0, 0]	n/a	FR1	2	R1065J
1881.265	1.906	1937491	REC_WORD	6.711	n/a	CHAIR	-999	18	[0, 0, 0]	n/a	FR1	2	R1065J
1883.171	0.879	1939396	REC_WORD	8.617	n/a	FLAME	-999	18	[0, 0, 0]	n/a	FR1	2	R1065J
1884.05	1.347	1940275	REC_WORD_VV	9.496	n/a	<>	-999	18	[0, 0, 0]	n/a	FR1	2	R1065J
1885.397	2.781	1941622	REC_WORD_VV	10.843	n/a	<>	-999	18	[0, 0, 0]	n/a	FR1	2	R1065J
1888.178	16.393	1944402	REC_WORD	13.624	n/a	SPARK	-999	18	[0, 0, 0]	n/a	FR1	2	R1065J
1904.571	9.638	1960792	REC_END	n/a	n/a	n/a	-999	18	[0, 0, 0]	n/a	FR1	2	R1065J
1914.209	0.0	1970428	TRIAL	n/a	n/a	n/a	-999	19	[0, 0, 0]	n/a	FR1	2	R1065J
1914.209	10.0	1970428	COUNTDOWN_START	n/a	n/a	n/a	-999	19	[0, 0, 0]	n/a	FR1	2	R1065J
1924.637	0.007	1980854	COUNTDOWN_END	n/a	n/a	n/a	-999	19	[0, 0, 0]	n/a	FR1	2	R1065J
1924.644	1.6	1980861	ORIENT	n/a	n/a	n/a	-999	19	[0, 0, 0]	n/a	FR1	2	R1065J
1927.227	1.6	1983443	WORD	n/a	wordpools/wordpool_EN.txt	GRAPE	1	19	[0, 0, 0]	n/a	FR1	2	R1065J
1929.629	1.6	1985845	WORD	n/a	wordpools/wordpool_EN.txt	STORE	2	19	[0, 0, 0]	n/a	FR1	2	R1065J
1932.028	1.6	1988243	WORD	n/a	wordpools/wordpool_EN.txt	PHONE	3	19	[0, 0, 0]	n/a	FR1	2	R1065J
1934.645	1.6	1990860	WORD	n/a	wordpools/wordpool_EN.txt	PEN	4	19	[0, 0, 0]	n/a	FR1	2	R1065J
1937.195	1.6	1993409	WORD	n/a	wordpools/wordpool_EN.txt	BADGE	5	19	[0, 0, 0]	n/a	FR1	2	R1065J
1939.763	1.6	1995977	WORD	n/a	wordpools/wordpool_EN.txt	MUG	6	19	[0, 0, 0]	n/a	FR1	2	R1065J
1942.179	1.6	1998392	WORD	n/a	wordpools/wordpool_EN.txt	FENCE	7	19	[0, 0, 0]	n/a	FR1	2	R1065J
1944.597	1.6	2000810	WORD	n/a	wordpools/wordpool_EN.txt	VAN	8	19	[0, 0, 0]	n/a	FR1	2	R1065J
1947.03	1.6	2003242	WORD	n/a	wordpools/wordpool_EN.txt	BOOK	9	19	[0, 0, 0]	n/a	FR1	2	R1065J
1949.431	1.6	2005643	WORD	n/a	wordpools/wordpool_EN.txt	DOG	10	19	[0, 0, 0]	n/a	FR1	2	R1065J
1951.931	1.6	2008142	WORD	n/a	wordpools/wordpool_EN.txt	JAIL	11	19	[0, 0, 0]	n/a	FR1	2	R1065J
1954.348	1.6	2010558	WORD	n/a	wordpools/wordpool_EN.txt	APE	12	19	[0, 0, 0]	n/a	FR1	2	R1065J
1955.965	0.001	2012175	DISTRACT_START	n/a	n/a	n/a	-999	19	[0, 0, 0]	n/a	FR1	2	R1065J
1955.966	0.016	2012176	START	n/a	n/a	n/a	-999	19	[-999, -999, -999]	n/a	FR1	2	R1065J
1955.982	2.984	2012192	PROB	2.953	n/a	n/a	-999	19	[1, 4, 9]	14.0	FR1	2	R1065J
1958.966	1.666	2015176	PROB	1.642	n/a	n/a	-999	19	[6, 1, 4]	11.0	FR1	2	R1065J
1960.632	2.017	2016841	PROB	1.984	n/a	n/a	-999	19	[9, 8, 6]	23.0	FR1	2	R1065J
1962.649	1.867	2018858	PROB	1.846	n/a	n/a	-999	19	[7, 8, 2]	17.0	FR1	2	R1065J
1964.516	2.117	2020724	PROB	2.091	n/a	n/a	-999	19	[1, 6, 9]	16.0	FR1	2	R1065J
1966.633	5.551	2022841	PROB	5.518	n/a	n/a	-999	19	[7, 9, 6]	22.0	FR1	2	R1065J
1972.184	2.117	2028391	PROB	2.094	n/a	n/a	-999	19	[2, 7, 6]	15.0	FR1	2	R1065J
1974.301	2.01	2030507	PROB	2.01	n/a	n/a	-999	19	[6, 7, 3]	16.0	FR1	2	R1065J
1976.311	0.007	2032517	STOP	n/a	n/a	n/a	-999	19	[-999, -999, -999]	n/a	FR1	2	R1065J
1976.318	1.051	2032524	DISTRACT_END	n/a	n/a	n/a	-999	19	[0, 0, 0]	n/a	FR1	2	R1065J
1977.369	2.518	2033575	REC_START	n/a	n/a	n/a	-999	19	[0, 0, 0]	n/a	FR1	2	R1065J
1979.887	2.455	2036092	REC_WORD	2.518	n/a	PHONE	-999	19	[0, 0, 0]	n/a	FR1	2	R1065J
1982.342	17.568	2038547	REC_WORD	4.973	n/a	BENCH	-999	19	[0, 0, 0]	n/a	FR1	2	R1065J
1999.91	7.469	2056111	REC_WORD	22.541	n/a	CHAIR	-999	19	[0, 0, 0]	n/a	FR1	2	R1065J
2007.379	3.127	2063578	REC_END	n/a	n/a	n/a	-999	19	[0, 0, 0]	n/a	FR1	2	R1065J
2010.506	0.0	2066705	TRIAL	n/a	n/a	n/a	-999	20	[0, 0, 0]	n/a	FR1	2	R1065J
2010.506	10.0	2066705	COUNTDOWN_START	n/a	n/a	n/a	-999	20	[0, 0, 0]	n/a	FR1	2	R1065J
2020.934	0.007	2077130	COUNTDOWN_END	n/a	n/a	n/a	-999	20	[0, 0, 0]	n/a	FR1	2	R1065J
2020.941	1.6	2077137	ORIENT	n/a	n/a	n/a	-999	20	[0, 0, 0]	n/a	FR1	2	R1065J
2023.308	1.6	2079504	WORD	n/a	wordpools/wordpool_EN.txt	TRAY	1	20	[0, 0, 0]	n/a	FR1	2	R1065J
2025.925	1.6	2082120	WORD	n/a	wordpools/wordpool_EN.txt	PET	2	20	[0, 0, 0]	n/a	FR1	2	R1065J
2028.476	1.6	2084671	WORD	n/a	wordpools/wordpool_EN.txt	CAKE	3	20	[0, 0, 0]	n/a	FR1	2	R1065J
2030.992	1.6	2087186	WORD	n/a	wordpools/wordpool_EN.txt	FUDGE	4	20	[0, 0, 0]	n/a	FR1	2	R1065J
2033.36	1.6	2089554	WORD	n/a	wordpools/wordpool_EN.txt	TEETH	5	20	[0, 0, 0]	n/a	FR1	2	R1065J
2035.893	1.6	2092086	WORD	n/a	wordpools/wordpool_EN.txt	GEESE	6	20	[0, 0, 0]	n/a	FR1	2	R1065J
2038.494	1.6	2094687	WORD	n/a	wordpools/wordpool_EN.txt	JUICE	7	20	[0, 0, 0]	n/a	FR1	2	R1065J
2040.961	1.6	2097153	WORD	n/a	wordpools/wordpool_EN.txt	MOUSE	8	20	[0, 0, 0]	n/a	FR1	2	R1065J
2043.411	1.6	2099603	WORD	n/a	wordpools/wordpool_EN.txt	EGG	9	20	[0, 0, 0]	n/a	FR1	2	R1065J
2045.961	1.6	2102152	WORD	n/a	wordpools/wordpool_EN.txt	FOOD	10	20	[0, 0, 0]	n/a	FR1	2	R1065J
2048.546	1.6	2104737	WORD	n/a	wordpools/wordpool_EN.txt	ANT	11	20	[0, 0, 0]	n/a	FR1	2	R1065J
2051.145	1.6	2107335	WORD	n/a	wordpools/wordpool_EN.txt	DUCK	12	20	[0, 0, 0]	n/a	FR1	2	R1065J
2052.762	0.001	2108952	DISTRACT_START	n/a	n/a	n/a	-999	20	[0, 0, 0]	n/a	FR1	2	R1065J
2052.763	0.016	2108953	START	n/a	n/a	n/a	-999	20	[-999, -999, -999]	n/a	FR1	2	R1065J
2052.779	2.617	2108969	PROB	2.586	n/a	n/a	-999	20	[5, 2, 6]	13.0	FR1	2	R1065J
2055.396	2.95	2111585	PROB	2.928	n/a	n/a	-999	20	[9, 5, 7]	21.0	FR1	2	R1065J
2058.346	1.984	2114535	PROB	1.962	n/a	n/a	-999	20	[1, 2, 4]	7.0	FR1	2	R1065J
2060.33	1.717	2116518	PROB	1.69	n/a	n/a	-999	20	[1, 3, 5]	9.0	FR1	2	R1065J
2062.047	1.783	2118235	PROB	1.758	n/a	n/a	-999	20	[9, 1, 3]	13.0	FR1	2	R1065J
2063.83	3.384	2120017	PROB	3.358	n/a	n/a	-999	20	[4, 7, 3]	14.0	FR1	2	R1065J
2067.214	1.917	2123401	PROB	1.895	n/a	n/a	-999	20	[6, 6, 5]	17.0	FR1	2	R1065J
2069.131	1.967	2125317	PROB	1.937	n/a	n/a	-999	20	[8, 7, 2]	17.0	FR1	2	R1065J
2071.098	2.779	2127284	PROB	2.779	n/a	n/a	-999	20	[9, 3, 9]	21.0	FR1	2	R1065J
2073.877	0.022	2130062	STOP	n/a	n/a	n/a	-999	20	[-999, -999, -999]	n/a	FR1	2	R1065J
2073.899	1.084	2130084	DISTRACT_END	n/a	n/a	n/a	-999	20	[0, 0, 0]	n/a	FR1	2	R1065J
2074.983	2.232	2131168	REC_START	n/a	n/a	n/a	-999	20	[0, 0, 0]	n/a	FR1	2	R1065J
2077.215	1.65	2133400	REC_WORD	2.232	n/a	FOOD	-999	20	[0, 0, 0]	n/a	FR1	2	R1065J
2078.865	1.698	2135049	REC_WORD	3.882	n/a	TRAY	-999	20	[0, 0, 0]	n/a	FR1	2	R1065J
2080.563	2.322	2136747	REC_WORD	5.58	n/a	FUDGE	-999	20	[0, 0, 0]	n/a	FR1	2	R1065J
2082.885	2.961	2139068	REC_WORD	7.902	n/a	JUICE	-999	20	[0, 0, 0]	n/a	FR1	2	R1065J
2085.846	5.727	2142029	REC_WORD	10.863	n/a	CAKE	-999	20	[0, 0, 0]	n/a	FR1	2	R1065J
2091.573	13.422	2147755	REC_WORD	16.59	n/a	MOUSE	-999	20	[0, 0, 0]	n/a	FR1	2	R1065J
2104.995	2.109	2161174	REC_END	n/a	n/a	n/a	-999	20	[0, 0, 0]	n/a	FR1	2	R1065J
2107.104	0.0	2163282	TRIAL	n/a	n/a	n/a	-999	21	[0, 0, 0]	n/a	FR1	2	R1065J
2107.104	10.0	2163282	COUNTDOWN_START	n/a	n/a	n/a	-999	21	[0, 0, 0]	n/a	FR1	2	R1065J
2117.532	0.008	2173708	COUNTDOWN_END	n/a	n/a	n/a	-999	21	[0, 0, 0]	n/a	FR1	2	R1065J
2117.54	1.6	2173716	ORIENT	n/a	n/a	n/a	-999	21	[0, 0, 0]	n/a	FR1	2	R1065J
2120.172	1.6	2176348	WORD	n/a	wordpools/wordpool_EN.txt	TRASH	1	21	[0, 0, 0]	n/a	FR1	2	R1065J
2122.689	1.6	2178864	WORD	n/a	wordpools/wordpool_EN.txt	CAT	2	21	[0, 0, 0]	n/a	FR1	2	R1065J
2125.106	1.6	2181280	WORD	n/a	wordpools/wordpool_EN.txt	ZOO	3	21	[0, 0, 0]	n/a	FR1	2	R1065J
2127.591	1.6	2183765	WORD	n/a	wordpools/wordpool_EN.txt	FLUTE	4	21	[0, 0, 0]	n/a	FR1	2	R1065J
2130.19	1.6	2186363	WORD	n/a	wordpools/wordpool_EN.txt	STAR	5	21	[0, 0, 0]	n/a	FR1	2	R1065J
2132.657	1.6	2188830	WORD	n/a	wordpools/wordpool_EN.txt	MAZE	6	21	[0, 0, 0]	n/a	FR1	2	R1065J
2135.108	1.6	2191280	WORD	n/a	wordpools/wordpool_EN.txt	SUN	7	21	[0, 0, 0]	n/a	FR1	2	R1065J
2137.675	1.6	2193847	WORD	n/a	wordpools/wordpool_EN.txt	DESK	8	21	[0, 0, 0]	n/a	FR1	2	R1065J
2140.059	1.6	2196230	WORD	n/a	wordpools/wordpool_EN.txt	BAT	9	21	[0, 0, 0]	n/a	FR1	2	R1065J
2142.576	1.6	2198747	WORD	n/a	wordpools/wordpool_EN.txt	MOTH	10	21	[0, 0, 0]	n/a	FR1	2	R1065J
2145.126	1.6	2201296	WORD	n/a	wordpools/wordpool_EN.txt	BEE	11	21	[0, 0, 0]	n/a	FR1	2	R1065J
2147.51	1.6	2203680	WORD	n/a	wordpools/wordpool_EN.txt	BIRD	12	21	[0, 0, 0]	n/a	FR1	2	R1065J
2149.127	0.001	2205296	DISTRACT_START	n/a	n/a	n/a	-999	21	[0, 0, 0]	n/a	FR1	2	R1065J
2149.128	0.015	2205297	START	n/a	n/a	n/a	-999	21	[-999, -999, -999]	n/a	FR1	2	R1065J
2149.143	2.984	2205312	PROB	2.963	n/a	n/a	-999	21	[4, 8, 9]	21.0	FR1	2	R1065J
2152.127	2.0	2208296	PROB	1.964	n/a	n/a	-999	21	[6, 6, 7]	19.0	FR1	2	R1065J
2154.127	1.951	2210295	PROB	1.915	n/a	n/a	-999	21	[2, 4, 8]	14.0	FR1	2	R1065J
2156.078	2.417	2212246	PROB	2.388	n/a	n/a	-999	21	[6, 2, 3]	11.0	FR1	2	R1065J
2158.495	2.084	2214662	PROB	2.053	n/a	n/a	-999	21	[3, 4, 8]	15.0	FR1	2	R1065J
2160.579	2.149	2216746	PROB	2.119	n/a	n/a	-999	21	[3, 4, 3]	10.0	FR1	2	R1065J
2162.728	2.551	2218895	PROB	2.53	n/a	n/a	-999	21	[5, 7, 4]	15.0	FR1	2	R1065J
2165.279	2.017	2221445	PROB	1.995	n/a	n/a	-999	21	[8, 9, 4]	21.0	FR1	2	R1065J
2167.296	2.058	2223462	PROB	2.058	n/a	n/a	-999	21	[4, 3, 9]	16.0	FR1	2	R1065J
2169.354	0.009	2225519	STOP	n/a	n/a	n/a	-999	21	[-999, -999, -999]	n/a	FR1	2	R1065J
2169.363	1.167	2225528	DISTRACT_END	n/a	n/a	n/a	-999	21	[0, 0, 0]	n/a	FR1	2	R1065J
2170.53	2.305	2226695	REC_START	n/a	n/a	n/a	-999	21	[0, 0, 0]	n/a	FR1	2	R1065J
2172.835	2.574	2228999	REC_WORD	2.305	n/a	STAR	-999	21	[0, 0, 0]	n/a	FR1	2	R1065J
2175.409	2.298	2231573	REC_WORD	4.879	n/a	SUN	-999	21	[0, 0, 0]	n/a	FR1	2	R1065J
2177.707	2.175	2233870	REC_WORD	7.177	n/a	BAT	-999	21	[0, 0, 0]	n/a	FR1	2	R1065J
2179.882	3.048	2236045	REC_WORD	9.352	n/a	MOTH	-999	21	[0, 0, 0]	n/a	FR1	2	R1065J
2182.93	17.618	2239092	REC_WORD	12.4	n/a	BEE	-999	21	[0, 0, 0]	n/a	FR1	2	R1065J
2200.548	2.336	2256707	REC_END	n/a	n/a	n/a	-999	21	[0, 0, 0]	n/a	FR1	2	R1065J
2202.884	10.0	2259042	COUNTDOWN_START	n/a	n/a	n/a	-999	22	[0, 0, 0]	n/a	FR1	2	R1065J
2202.885	10.427	2259043	TRIAL	n/a	n/a	n/a	-999	22	[0, 0, 0]	n/a	FR1	2	R1065J
2213.312	0.007	2269468	COUNTDOWN_END	n/a	n/a	n/a	-999	22	[0, 0, 0]	n/a	FR1	2	R1065J
2213.319	1.6	2269475	ORIENT	n/a	n/a	n/a	-999	22	[0, 0, 0]	n/a	FR1	2	R1065J
2215.92	1.6	2272075	WORD	n/a	wordpools/wordpool_EN.txt	CAVE	1	22	[0, 0, 0]	n/a	FR1	2	R1065J
2218.537	1.6	2274692	WORD	n/a	wordpools/wordpool_EN.txt	STEAM	2	22	[0, 0, 0]	n/a	FR1	2	R1065J
2221.137	1.6	2277291	WORD	n/a	wordpools/wordpool_EN.txt	CAPE	3	22	[0, 0, 0]	n/a	FR1	2	R1065J
2223.572	1.6	2279726	WORD	n/a	wordpools/wordpool_EN.txt	SALT	4	22	[0, 0, 0]	n/a	FR1	2	R1065J
2226.038	1.6	2282191	WORD	n/a	wordpools/wordpool_EN.txt	BOMB	5	22	[0, 0, 0]	n/a	FR1	2	R1065J
2228.606	1.6	2284759	WORD	n/a	wordpools/wordpool_EN.txt	MOUTH	6	22	[0, 0, 0]	n/a	FR1	2	R1065J
2231.122	1.6	2287274	WORD	n/a	wordpools/wordpool_EN.txt	CLAY	7	22	[0, 0, 0]	n/a	FR1	2	R1065J
2233.655	1.6	2289807	WORD	n/a	wordpools/wordpool_EN.txt	PLANE	8	22	[0, 0, 0]	n/a	FR1	2	R1065J
2236.189	1.6	2292340	WORD	n/a	wordpools/wordpool_EN.txt	ICE	9	22	[0, 0, 0]	n/a	FR1	2	R1065J
2238.773	1.6	2294924	WORD	n/a	wordpools/wordpool_EN.txt	CORD	10	22	[0, 0, 0]	n/a	FR1	2	R1065J
2241.173	1.6	2297323	WORD	n/a	wordpools/wordpool_EN.txt	CUBE	11	22	[0, 0, 0]	n/a	FR1	2	R1065J
2243.575	1.6	2299725	WORD	n/a	wordpools/wordpool_EN.txt	SMOKE	12	22	[0, 0, 0]	n/a	FR1	2	R1065J
2245.19	0.001	2301339	DISTRACT_START	n/a	n/a	n/a	-999	22	[0, 0, 0]	n/a	FR1	2	R1065J
2245.191	0.016	2301340	START	n/a	n/a	n/a	-999	22	[-999, -999, -999]	n/a	FR1	2	R1065J
2245.207	2.517	2301356	PROB	2.481	n/a	n/a	-999	22	[9, 3, 1]	13.0	FR1	2	R1065J
2247.724	1.868	2303873	PROB	1.837	n/a	n/a	-999	22	[6, 6, 6]	18.0	FR1	2	R1065J
2249.592	1.749	2305740	PROB	1.728	n/a	n/a	-999	22	[4, 1, 1]	6.0	FR1	2	R1065J
2251.341	2.684	2307489	PROB	2.66	n/a	n/a	-999	22	[2, 9, 3]	14.0	FR1	2	R1065J
2254.025	1.851	2310172	PROB	1.815	n/a	n/a	-999	22	[2, 9, 1]	12.0	FR1	2	R1065J
2255.876	2.734	2312023	PROB	2.709	n/a	n/a	-999	22	[9, 6, 9]	24.0	FR1	2	R1065J
2258.61	1.816	2314756	PROB	1.79	n/a	n/a	-999	22	[1, 9, 7]	17.0	FR1	2	R1065J
2260.426	3.667	2316572	PROB	3.646	n/a	n/a	-999	22	[9, 5, 7]	21.0	FR1	2	R1065J
2264.093	1.747	2320238	PROB	1.747	n/a	n/a	-999	22	[4, 1, 1]	6.0	FR1	2	R1065J
2265.84	0.003	2321985	STOP	n/a	n/a	n/a	-999	22	[-999, -999, -999]	n/a	FR1	2	R1065J
2265.843	1.169	2321988	DISTRACT_END	n/a	n/a	n/a	-999	22	[0, 0, 0]	n/a	FR1	2	R1065J
2267.012	2.177	2323157	REC_START	n/a	n/a	n/a	-999	22	[0, 0, 0]	n/a	FR1	2	R1065J
2269.189	1.809	2325333	REC_WORD	2.177	n/a	PLANE	-999	22	[0, 0, 0]	n/a	FR1	2	R1065J
2270.998	2.31	2327142	REC_WORD	3.986	n/a	CUBE	-999	22	[0, 0, 0]	n/a	FR1	2	R1065J
2273.308	23.716	2329451	REC_WORD	6.296	n/a	ICE	-999	22	[0, 0, 0]	n/a	FR1	2	R1065J
2297.024	3.592	2353162	REC_END	n/a	n/a	n/a	-999	22	[0, 0, 0]	n/a	FR1	2	R1065J
2300.616	0.0	2356754	TRIAL	n/a	n/a	n/a	-999	23	[0, 0, 0]	n/a	FR1	2	R1065J
2300.616	10.0	2356754	COUNTDOWN_START	n/a	n/a	n/a	-999	23	[0, 0, 0]	n/a	FR1	2	R1065J
2311.044	0.006	2367179	COUNTDOWN_END	n/a	n/a	n/a	-999	23	[0, 0, 0]	n/a	FR1	2	R1065J
2311.05	1.6	2367185	ORIENT	n/a	n/a	n/a	-999	23	[0, 0, 0]	n/a	FR1	2	R1065J
2313.552	1.6	2369687	WORD	n/a	wordpools/wordpool_EN.txt	TREE	1	23	[0, 0, 0]	n/a	FR1	2	R1065J
2315.934	1.6	2372068	WORD	n/a	wordpools/wordpool_EN.txt	VINE	2	23	[0, 0, 0]	n/a	FR1	2	R1065J
2318.485	1.6	2374619	WORD	n/a	wordpools/wordpool_EN.txt	MILK	3	23	[0, 0, 0]	n/a	FR1	2	R1065J
2320.952	1.6	2377085	WORD	n/a	wordpools/wordpool_EN.txt	WHEEL	4	23	[0, 0, 0]	n/a	FR1	2	R1065J
2323.369	1.6	2379502	WORD	n/a	wordpools/wordpool_EN.txt	STEM	5	23	[0, 0, 0]	n/a	FR1	2	R1065J
2325.936	1.6	2382068	WORD	n/a	wordpools/wordpool_EN.txt	CONE	6	23	[0, 0, 0]	n/a	FR1	2	R1065J
2328.403	1.6	2384535	WORD	n/a	wordpools/wordpool_EN.txt	ELF	7	23	[0, 0, 0]	n/a	FR1	2	R1065J
2330.82	1.6	2386951	WORD	n/a	wordpools/wordpool_EN.txt	SEED	8	23	[0, 0, 0]	n/a	FR1	2	R1065J
2333.253	1.6	2389384	WORD	n/a	wordpools/wordpool_EN.txt	THUMB	9	23	[0, 0, 0]	n/a	FR1	2	R1065J
2335.871	1.6	2392001	WORD	n/a	wordpools/wordpool_EN.txt	BOOT	10	23	[0, 0, 0]	n/a	FR1	2	R1065J
2338.471	1.6	2394601	WORD	n/a	wordpools/wordpool_EN.txt	WORM	11	23	[0, 0, 0]	n/a	FR1	2	R1065J
2341.088	1.6	2397217	WORD	n/a	wordpools/wordpool_EN.txt	COW	12	23	[0, 0, 0]	n/a	FR1	2	R1065J
2342.705	0.001	2398834	DISTRACT_START	n/a	n/a	n/a	-999	23	[0, 0, 0]	n/a	FR1	2	R1065J
2342.706	0.015	2398835	START	n/a	n/a	n/a	-999	23	[-999, -999, -999]	n/a	FR1	2	R1065J
2342.721	4.201	2398850	PROB	4.173	n/a	n/a	-999	23	[6, 7, 8]	23.0	FR1	2	R1065J
2346.922	1.934	2403050	PROB	1.908	n/a	n/a	-999	23	[8, 6, 8]	22.0	FR1	2	R1065J
2348.856	2.217	2404983	PROB	2.174	n/a	n/a	-999	23	[2, 9, 3]	14.0	FR1	2	R1065J
2351.073	1.75	2407200	PROB	1.717	n/a	n/a	-999	23	[7, 3, 8]	18.0	FR1	2	R1065J
2352.823	1.85	2408950	PROB	1.815	n/a	n/a	-999	23	[8, 3, 3]	14.0	FR1	2	R1065J
2354.673	2.184	2410799	PROB	2.157	n/a	n/a	-999	23	[1, 6, 8]	15.0	FR1	2	R1065J
2356.857	2.25	2412983	PROB	2.229	n/a	n/a	-999	23	[4, 4, 9]	17.0	FR1	2	R1065J
2359.107	2.267	2415232	PROB	2.235	n/a	n/a	-999	23	[8, 5, 1]	14.0	FR1	2	R1065J
2361.374	2.319	2417499	PROB	2.319	n/a	n/a	-999	23	[2, 6, 7]	15.0	FR1	2	R1065J
2363.693	0.015	2419817	STOP	n/a	n/a	n/a	-999	23	[-999, -999, -999]	n/a	FR1	2	R1065J
2363.708	1.217	2419832	DISTRACT_END	n/a	n/a	n/a	-999	23	[0, 0, 0]	n/a	FR1	2	R1065J
2364.925	2.398	2421049	REC_START	n/a	n/a	n/a	-999	23	[0, 0, 0]	n/a	FR1	2	R1065J
2367.323	1.431	2423446	REC_WORD	2.398	n/a	TREE	-999	23	[0, 0, 0]	n/a	FR1	2	R1065J
2368.754	2.552	2424877	REC_WORD	3.829	n/a	VINE	-999	23	[0, 0, 0]	n/a	FR1	2	R1065J
2371.306	2.216	2427429	REC_WORD	6.381	n/a	WORM	-999	23	[0, 0, 0]	n/a	FR1	2	R1065J
2373.522	5.723	2429644	REC_WORD	8.597	n/a	BOOT	-999	23	[0, 0, 0]	n/a	FR1	2	R1065J
2379.245	15.697	2435366	REC_WORD	14.32	n/a	BRANCH	-999	23	[0, 0, 0]	n/a	FR1	2	R1065J
2394.942	2.554	2451060	REC_END	n/a	n/a	n/a	-999	23	[0, 0, 0]	n/a	FR1	2	R1065J
2397.496	10.0	2453613	COUNTDOWN_START	n/a	n/a	n/a	-999	24	[0, 0, 0]	n/a	FR1	2	R1065J
2397.497	10.427	2453614	TRIAL	n/a	n/a	n/a	-999	24	[0, 0, 0]	n/a	FR1	2	R1065J
2407.924	0.007	2464039	COUNTDOWN_END	n/a	n/a	n/a	-999	24	[0, 0, 0]	n/a	FR1	2	R1065J
2407.931	1.6	2464046	ORIENT	n/a	n/a	n/a	-999	24	[0, 0, 0]	n/a	FR1	2	R1065J
2410.481	1.6	2466595	WORD	n/a	wordpools/wordpool_EN.txt	PIPE	1	24	[0, 0, 0]	n/a	FR1	2	R1065J
2412.865	1.6	2468979	WORD	n/a	wordpools/wordpool_EN.txt	OWL	2	24	[0, 0, 0]	n/a	FR1	2	R1065J
2415.348	1.6	2471461	WORD	n/a	wordpools/wordpool_EN.txt	PIE	3	24	[0, 0, 0]	n/a	FR1	2	R1065J
2417.916	1.6	2474029	WORD	n/a	wordpools/wordpool_EN.txt	DEER	4	24	[0, 0, 0]	n/a	FR1	2	R1065J
2420.35	1.6	2476462	WORD	n/a	wordpools/wordpool_EN.txt	SPRING	5	24	[0, 0, 0]	n/a	FR1	2	R1065J
2422.9	1.6	2479012	WORD	n/a	wordpools/wordpool_EN.txt	MULE	6	24	[0, 0, 0]	n/a	FR1	2	R1065J
2425.5	1.6	2481611	WORD	n/a	wordpools/wordpool_EN.txt	SLUSH	7	24	[0, 0, 0]	n/a	FR1	2	R1065J
2427.934	1.6	2484045	WORD	n/a	wordpools/wordpool_EN.txt	PIG	8	24	[0, 0, 0]	n/a	FR1	2	R1065J
2430.384	1.6	2486494	WORD	n/a	wordpools/wordpool_EN.txt	STOOL	9	24	[0, 0, 0]	n/a	FR1	2	R1065J
2432.918	1.6	2489028	WORD	n/a	wordpools/wordpool_EN.txt	POOL	10	24	[0, 0, 0]	n/a	FR1	2	R1065J
2435.335	1.6	2491444	WORD	n/a	wordpools/wordpool_EN.txt	WOLF	11	24	[0, 0, 0]	n/a	FR1	2	R1065J
2437.902	1.6	2494011	WORD	n/a	wordpools/wordpool_EN.txt	SWAMP	12	24	[0, 0, 0]	n/a	FR1	2	R1065J
2439.519	0.001	2495627	DISTRACT_START	n/a	n/a	n/a	-999	24	[0, 0, 0]	n/a	FR1	2	R1065J
2439.52	0.016	2495628	START	n/a	n/a	n/a	-999	24	[-999, -999, -999]	n/a	FR1	2	R1065J
2439.536	3.567	2495644	PROB	3.532	n/a	n/a	-999	24	[3, 8, 4]	15.0	FR1	2	R1065J
2443.103	1.783	2499211	PROB	1.749	n/a	n/a	-999	24	[1, 5, 8]	14.0	FR1	2	R1065J
2444.886	2.001	2500993	PROB	1.974	n/a	n/a	-999	24	[5, 6, 3]	14.0	FR1	2	R1065J
2446.887	1.833	2502994	PROB	1.797	n/a	n/a	-999	24	[2, 8, 5]	15.0	FR1	2	R1065J
2448.72	1.617	2504826	PROB	1.596	n/a	n/a	-999	24	[2, 1, 1]	4.0	FR1	2	R1065J
2450.337	1.8	2506443	PROB	1.771	n/a	n/a	-999	24	[3, 8, 2]	13.0	FR1	2	R1065J
2452.137	2.117	2508243	PROB	2.091	n/a	n/a	-999	24	[8, 4, 4]	14.0	FR1	2	R1065J
2454.254	2.418	2510359	PROB	2.398	n/a	n/a	-999	24	[2, 6, 1]	9.0	FR1	2	R1065J
2456.672	2.017	2512777	PROB	1.988	n/a	n/a	-999	24	[2, 8, 6]	16.0	FR1	2	R1065J
2458.689	2.315	2514793	PROB	2.315	n/a	n/a	-999	24	[4, 4, 8]	16.0	FR1	2	R1065J
2461.004	0.018	2517108	STOP	n/a	n/a	n/a	-999	24	[-999, -999, -999]	n/a	FR1	2	R1065J
2461.022	1.034	2517126	DISTRACT_END	n/a	n/a	n/a	-999	24	[0, 0, 0]	n/a	FR1	2	R1065J
2462.056	6.275	2518160	REC_START	n/a	n/a	n/a	-999	24	[0, 0, 0]	n/a	FR1	2	R1065J
2468.331	2.161	2524433	REC_WORD	6.275	n/a	PIG	-999	24	[0, 0, 0]	n/a	FR1	2	R1065J
2470.492	3.886	2526594	REC_WORD	8.436	n/a	WOLF	-999	24	[0, 0, 0]	n/a	FR1	2	R1065J
2474.378	17.69	2530479	REC_WORD	12.322	n/a	OWL	-999	24	[0, 0, 0]	n/a	FR1	2	R1065J
2492.068	4.593	2548165	REC_END	n/a	n/a	n/a	-999	24	[0, 0, 0]	n/a	FR1	2	R1065J
2496.661	0.0	2552757	TRIAL	n/a	n/a	n/a	-999	25	[0, 0, 0]	n/a	FR1	2	R1065J
2496.661	10.0	2552757	COUNTDOWN_START	n/a	n/a	n/a	-999	25	[0, 0, 0]	n/a	FR1	2	R1065J
2507.089	0.007	2563183	COUNTDOWN_END	n/a	n/a	n/a	-999	25	[0, 0, 0]	n/a	FR1	2	R1065J
2507.096	1.6	2563190	ORIENT	n/a	n/a	n/a	-999	25	[0, 0, 0]	n/a	FR1	2	R1065J
2509.58	1.6	2565673	WORD	n/a	wordpools/wordpool_EN.txt	POND	1	25	[0, 0, 0]	n/a	FR1	2	R1065J
2512.013	1.6	2568106	WORD	n/a	wordpools/wordpool_EN.txt	HAND	2	25	[0, 0, 0]	n/a	FR1	2	R1065J
2514.43	1.6	2570522	WORD	n/a	wordpools/wordpool_EN.txt	SPONGE	3	25	[0, 0, 0]	n/a	FR1	2	R1065J
2516.997	1.6	2573089	WORD	n/a	wordpools/wordpool_EN.txt	WAVE	4	25	[0, 0, 0]	n/a	FR1	2	R1065J
2519.381	1.6	2575472	WORD	n/a	wordpools/wordpool_EN.txt	SHELL	5	25	[0, 0, 0]	n/a	FR1	2	R1065J
2521.931	1.6	2578022	WORD	n/a	wordpools/wordpool_EN.txt	EAR	6	25	[0, 0, 0]	n/a	FR1	2	R1065J
2524.398	1.6	2580488	WORD	n/a	wordpools/wordpool_EN.txt	BEACH	7	25	[0, 0, 0]	n/a	FR1	2	R1065J
2526.965	1.6	2583055	WORD	n/a	wordpools/wordpool_EN.txt	CAGE	8	25	[0, 0, 0]	n/a	FR1	2	R1065J
2529.349	1.6	2585438	WORD	n/a	wordpools/wordpool_EN.txt	SNAIL	9	25	[0, 0, 0]	n/a	FR1	2	R1065J
2531.949	1.6	2588038	WORD	n/a	wordpools/wordpool_EN.txt	NEST	10	25	[0, 0, 0]	n/a	FR1	2	R1065J
2534.466	1.6	2590554	WORD	n/a	wordpools/wordpool_EN.txt	BEAK	11	25	[0, 0, 0]	n/a	FR1	2	R1065J
2536.867	1.6	2592955	WORD	n/a	wordpools/wordpool_EN.txt	THREAD	12	25	[0, 0, 0]	n/a	FR1	2	R1065J
2538.484	0.001	2594571	DISTRACT_START	n/a	n/a	n/a	-999	25	[0, 0, 0]	n/a	FR1	2	R1065J
2538.485	0.015	2594572	START	n/a	n/a	n/a	-999	25	[-999, -999, -999]	n/a	FR1	2	R1065J
2538.5	3.184	2594587	PROB	3.158	n/a	n/a	-999	25	[5, 9, 2]	16.0	FR1	2	R1065J
2541.684	1.868	2597771	PROB	1.846	n/a	n/a	-999	25	[7, 3, 4]	14.0	FR1	2	R1065J
2543.552	2.749	2599638	PROB	2.714	n/a	n/a	-999	25	[3, 6, 5]	14.0	FR1	2	R1065J
2546.301	4.701	2602387	PROB	4.677	n/a	n/a	-999	25	[8, 7, 9]	24.0	FR1	2	R1065J
2551.002	3.501	2607087	PROB	3.48	n/a	n/a	-999	25	[8, 6, 1]	14.0	FR1	2	R1065J
2554.503	2.25	2610587	PROB	2.227	n/a	n/a	-999	25	[7, 4, 4]	15.0	FR1	2	R1065J
2556.753	3.488	2612837	PROB	3.488	n/a	n/a	-999	25	[6, 1, 9]	16.0	FR1	2	R1065J
2560.241	0.013	2616324	STOP	n/a	n/a	n/a	-999	25	[-999, -999, -999]	n/a	FR1	2	R1065J
2560.254	1.2	2616337	DISTRACT_END	n/a	n/a	n/a	-999	25	[0, 0, 0]	n/a	FR1	2	R1065J
2561.454	1.819	2617537	REC_START	n/a	n/a	n/a	-999	25	[0, 0, 0]	n/a	FR1	2	R1065J
2563.273	1.813	2619355	REC_WORD	1.819	n/a	BEACH	-999	25	[0, 0, 0]	n/a	FR1	2	R1065J
2565.086	1.915	2621168	REC_WORD	3.632	n/a	WAVE	-999	25	[0, 0, 0]	n/a	FR1	2	R1065J
2567.001	3.571	2623082	REC_WORD	5.547	n/a	POND	-999	25	[0, 0, 0]	n/a	FR1	2	R1065J
2570.572	1.088	2626653	REC_WORD	9.118	n/a	SNAIL	-999	25	[0, 0, 0]	n/a	FR1	2	R1065J
2571.66	10.036	2627740	REC_WORD	10.206	n/a	SPONGE	-999	25	[0, 0, 0]	n/a	FR1	2	R1065J
2581.696	9.77	2637774	REC_WORD	20.242	n/a	WAVE	-999	25	[0, 0, 0]	n/a	FR1	2	R1065J
2591.466	5.576	2647542	REC_END	n/a	n/a	n/a	-999	25	[0, 0, 0]	n/a	FR1	2	R1065J
2597.042	0.0	2653117	SESS_END	n/a	n/a	n/a	-999	25	[0, 0, 0]	n/a	FR1	2	R1065J
