onset	duration	sample	trial_type	response_time	stim_file	item_name	serialpos	list	test	answer	experiment	session	subject
0.0	31.611	174871	SESS_START	n/a	n/a	n/a	-999	-999	[0, 0, 0]	n/a	FR1	0	R1067P
31.611	10.0	190676	COUNTDOWN_START	n/a	n/a	n/a	-999	-999	[0, 0, 0]	n/a	FR1	0	R1067P
42.039	3.908	195889	COUNTDOWN_END	n/a	n/a	n/a	-999	-999	[0, 0, 0]	n/a	FR1	0	R1067P
45.947	1.6	197843	PRACTICE_WORD	n/a	n/a	RHINO	1	-1	[0, 0, 0]	n/a	FR1	0	R1067P
48.481	1.6	199110	PRACTICE_WORD	n/a	n/a	RING	2	-1	[0, 0, 0]	n/a	FR1	0	R1067P
50.998	1.6	200369	PRACTICE_WORD	n/a	n/a	TONGUE	3	-1	[0, 0, 0]	n/a	FR1	0	R1067P
53.599	1.6	201669	PRACTICE_WORD	n/a	n/a	COTTON	4	-1	[0, 0, 0]	n/a	FR1	0	R1067P
56.215	1.6	202977	PRACTICE_WORD	n/a	n/a	WAGON	5	-1	[0, 0, 0]	n/a	FR1	0	R1067P
58.65	1.6	204194	PRACTICE_WORD	n/a	n/a	CHEST	6	-1	[0, 0, 0]	n/a	FR1	0	R1067P
61.133	1.6	205436	PRACTICE_WORD	n/a	n/a	FLOOD	7	-1	[0, 0, 0]	n/a	FR1	0	R1067P
63.517	1.6	206628	PRACTICE_WORD	n/a	n/a	WATCH	8	-1	[0, 0, 0]	n/a	FR1	0	R1067P
65.951	1.6	207845	PRACTICE_WORD	n/a	n/a	BEAM	9	-1	[0, 0, 0]	n/a	FR1	0	R1067P
68.518	1.6	209128	PRACTICE_WORD	n/a	n/a	ATTIC	10	-1	[0, 0, 0]	n/a	FR1	0	R1067P
70.952	1.6	210345	PRACTICE_WORD	n/a	n/a	CAMEL	11	-1	[0, 0, 0]	n/a	FR1	0	R1067P
73.336	1.6	211537	PRACTICE_WORD	n/a	n/a	IRON	12	-1	[0, 0, 0]	n/a	FR1	0	R1067P
74.953	0.0	212345	PRACTICE_DISTRACT_START	n/a	n/a	n/a	-999	-1	[0, 0, 0]	n/a	FR1	0	R1067P
74.953	0.016	212345	START	n/a	n/a	n/a	-999	-1	[-999, -999, -999]	n/a	FR1	0	R1067P
74.969	12.868	212353	PROB	12.847	n/a	n/a	-999	-1	[9, 7, 3]	19.0	FR1	0	R1067P
87.837	8.372	218787	PROB	8.372	n/a	n/a	-999	-1	[1, 6, 4]	11.0	FR1	0	R1067P
96.209	0.014	222973	STOP	n/a	n/a	n/a	-999	-1	[-999, -999, -999]	n/a	FR1	0	R1067P
96.223	0.602	222980	PRACTICE_DISTRACT_END	n/a	n/a	n/a	-999	-1	[0, 0, 0]	n/a	FR1	0	R1067P
96.825	30.515	223281	PRACTICE_REC_START	n/a	n/a	n/a	-999	-1	[0, 0, 0]	n/a	FR1	0	R1067P
127.34	45.948	238538	PRACTICE_REC_END	n/a	n/a	n/a	-999	-1	[0, 0, 0]	n/a	FR1	0	R1067P
173.288	0.0	261510	TRIAL	n/a	n/a	n/a	-999	1	[0, 0, 0]	n/a	FR1	0	R1067P
173.288	10.0	261510	COUNTDOWN_START	n/a	n/a	n/a	-999	1	[0, 0, 0]	n/a	FR1	0	R1067P
183.716	0.007	266724	COUNTDOWN_END	n/a	n/a	n/a	-999	1	[0, 0, 0]	n/a	FR1	0	R1067P
183.723	1.6	266728	ORIENT	n/a	n/a	n/a	-999	1	[0, 0, 0]	n/a	FR1	0	R1067P
186.224	1.6	267978	WORD	n/a	wordpools/wordpool_EN.txt	SQUARE	1	1	[0, 0, 0]	n/a	FR1	0	R1067P
188.773	1.6	269253	WORD	n/a	wordpools/wordpool_EN.txt	CART	2	1	[0, 0, 0]	n/a	FR1	0	R1067P
191.241	1.6	270487	WORD	n/a	wordpools/wordpool_EN.txt	BOWL	3	1	[0, 0, 0]	n/a	FR1	0	R1067P
193.692	1.6	271712	WORD	n/a	wordpools/wordpool_EN.txt	BOY	4	1	[0, 0, 0]	n/a	FR1	0	R1067P
196.159	1.6	272945	WORD	n/a	wordpools/wordpool_EN.txt	WOOD	5	1	[0, 0, 0]	n/a	FR1	0	R1067P
198.726	1.6	274229	WORD	n/a	wordpools/wordpool_EN.txt	BOAT	6	1	[0, 0, 0]	n/a	FR1	0	R1067P
201.36	1.6	275546	WORD	n/a	wordpools/wordpool_EN.txt	CROWN	7	1	[0, 0, 0]	n/a	FR1	0	R1067P
203.809	1.6	276770	WORD	n/a	wordpools/wordpool_EN.txt	CLAY	8	1	[0, 0, 0]	n/a	FR1	0	R1067P
206.227	1.6	277979	WORD	n/a	wordpools/wordpool_EN.txt	CANE	9	1	[0, 0, 0]	n/a	FR1	0	R1067P
208.843	1.6	279287	WORD	n/a	wordpools/wordpool_EN.txt	SLEEVE	10	1	[0, 0, 0]	n/a	FR1	0	R1067P
211.245	1.6	280488	WORD	n/a	wordpools/wordpool_EN.txt	SWORD	11	1	[0, 0, 0]	n/a	FR1	0	R1067P
213.794	1.6	281762	WORD	n/a	wordpools/wordpool_EN.txt	CUBE	12	1	[0, 0, 0]	n/a	FR1	0	R1067P
215.396	0.001	282563	DISTRACT_START	n/a	n/a	n/a	-999	1	[0, 0, 0]	n/a	FR1	0	R1067P
215.397	0.015	282564	START	n/a	n/a	n/a	-999	1	[-999, -999, -999]	n/a	FR1	0	R1067P
215.412	8.102	282571	PROB	8.069	n/a	n/a	-999	1	[6, 3, 7]	16.0	FR1	0	R1067P
223.514	12.943	286622	PROB	12.943	n/a	n/a	-999	1	[2, 7, 6]	15.0	FR1	0	R1067P
236.457	0.009	293093	STOP	n/a	n/a	n/a	-999	1	[-999, -999, -999]	n/a	FR1	0	R1067P
236.466	1.073	293098	DISTRACT_END	n/a	n/a	n/a	-999	1	[0, 0, 0]	n/a	FR1	0	R1067P
237.539	3.198	293634	REC_START	n/a	n/a	n/a	-999	1	[0, 0, 0]	n/a	FR1	0	R1067P
240.737	1.0	295233	REC_WORD_VV	3.198	n/a	<>	-999	1	[0, 0, 0]	n/a	FR1	0	R1067P
241.737	1.0	295733	REC_WORD_VV	4.198	n/a	<>	-999	1	[0, 0, 0]	n/a	FR1	0	R1067P
242.737	1.728	296233	REC_WORD_VV	5.198	n/a	<>	-999	1	[0, 0, 0]	n/a	FR1	0	R1067P
244.465	0.86	297097	REC_WORD	6.926	n/a	CUBE	-999	1	[0, 0, 0]	n/a	FR1	0	R1067P
245.325	1.0	297527	REC_WORD_VV	7.786	n/a	<>	-999	1	[0, 0, 0]	n/a	FR1	0	R1067P
246.325	3.402	298027	REC_WORD_VV	8.786	n/a	<>	-999	1	[0, 0, 0]	n/a	FR1	0	R1067P
249.727	0.33	299728	REC_WORD_VV	12.188	n/a	<>	-999	1	[0, 0, 0]	n/a	FR1	0	R1067P
250.057	2.994	299893	REC_WORD	12.518	n/a	WOOD	-999	1	[0, 0, 0]	n/a	FR1	0	R1067P
253.051	8.303	301390	REC_WORD_VV	15.512	n/a	<>	-999	1	[0, 0, 0]	n/a	FR1	0	R1067P
261.354	1.0	305541	REC_WORD_VV	23.815	n/a	<>	-999	1	[0, 0, 0]	n/a	FR1	0	R1067P
262.354	3.574	306041	REC_WORD_VV	24.815	n/a	<>	-999	1	[0, 0, 0]	n/a	FR1	0	R1067P
265.928	1.616	307828	REC_WORD_VV	28.389	n/a	<>	-999	1	[0, 0, 0]	n/a	FR1	0	R1067P
267.544	53.688	308636	REC_END	n/a	n/a	n/a	-999	1	[0, 0, 0]	n/a	FR1	0	R1067P
321.232	10.0	335479	COUNTDOWN_START	n/a	n/a	n/a	-999	2	[0, 0, 0]	n/a	FR1	0	R1067P
321.233	10.427	335479	TRIAL	n/a	n/a	n/a	-999	2	[0, 0, 0]	n/a	FR1	0	R1067P
331.66	0.008	340693	COUNTDOWN_END	n/a	n/a	n/a	-999	2	[0, 0, 0]	n/a	FR1	0	R1067P
331.668	1.6	340697	ORIENT	n/a	n/a	n/a	-999	2	[0, 0, 0]	n/a	FR1	0	R1067P
334.268	1.6	341996	WORD	n/a	wordpools/wordpool_EN.txt	MAT	1	2	[0, 0, 0]	n/a	FR1	0	R1067P
336.768	1.6	343246	WORD	n/a	wordpools/wordpool_EN.txt	COW	2	2	[0, 0, 0]	n/a	FR1	0	R1067P
339.286	1.6	344505	WORD	n/a	wordpools/wordpool_EN.txt	PIE	3	2	[0, 0, 0]	n/a	FR1	0	R1067P
341.819	1.6	345772	WORD	n/a	wordpools/wordpool_EN.txt	BREAD	4	2	[0, 0, 0]	n/a	FR1	0	R1067P
344.387	1.6	347056	WORD	n/a	wordpools/wordpool_EN.txt	DOLL	5	2	[0, 0, 0]	n/a	FR1	0	R1067P
346.904	1.6	348314	WORD	n/a	wordpools/wordpool_EN.txt	VASE	6	2	[0, 0, 0]	n/a	FR1	0	R1067P
349.437	1.6	349581	WORD	n/a	wordpools/wordpool_EN.txt	SPRING	7	2	[0, 0, 0]	n/a	FR1	0	R1067P
352.038	1.6	350881	WORD	n/a	wordpools/wordpool_EN.txt	SINK	8	2	[0, 0, 0]	n/a	FR1	0	R1067P
354.455	1.6	352089	WORD	n/a	wordpools/wordpool_EN.txt	SEAT	9	2	[0, 0, 0]	n/a	FR1	0	R1067P
356.906	1.6	353315	WORD	n/a	wordpools/wordpool_EN.txt	SHEEP	10	2	[0, 0, 0]	n/a	FR1	0	R1067P
359.339	1.6	354531	WORD	n/a	wordpools/wordpool_EN.txt	CLOTH	11	2	[0, 0, 0]	n/a	FR1	0	R1067P
361.74	1.6	355732	WORD	n/a	wordpools/wordpool_EN.txt	BLUSH	12	2	[0, 0, 0]	n/a	FR1	0	R1067P
363.357	0.001	356540	DISTRACT_START	n/a	n/a	n/a	-999	2	[0, 0, 0]	n/a	FR1	0	R1067P
363.358	0.015	356541	START	n/a	n/a	n/a	-999	2	[-999, -999, -999]	n/a	FR1	0	R1067P
363.373	5.535	356548	PROB	5.5	n/a	n/a	-999	2	[5, 2, 8]	15.0	FR1	0	R1067P
368.908	5.883	359316	PROB	5.86	n/a	n/a	-999	2	[9, 3, 6]	18.0	FR1	0	R1067P
374.791	4.302	362257	PROB	4.274	n/a	n/a	-999	2	[7, 2, 9]	18.0	FR1	0	R1067P
379.093	4.828	364408	PROB	4.828	n/a	n/a	-999	2	[2, 7, 9]	18.0	FR1	0	R1067P
383.921	0.006	366822	STOP	n/a	n/a	n/a	-999	2	[-999, -999, -999]	n/a	FR1	0	R1067P
383.927	1.09	366825	DISTRACT_END	n/a	n/a	n/a	-999	2	[0, 0, 0]	n/a	FR1	0	R1067P
385.017	0.947	367370	REC_START	n/a	n/a	n/a	-999	2	[0, 0, 0]	n/a	FR1	0	R1067P
385.964	0.754	367843	REC_WORD_VV	0.947	n/a	<>	-999	2	[0, 0, 0]	n/a	FR1	0	R1067P
386.718	0.667	368220	REC_WORD_VV	1.701	n/a	<>	-999	2	[0, 0, 0]	n/a	FR1	0	R1067P
387.385	2.761	368554	REC_WORD	2.368	n/a	MAT	-999	2	[0, 0, 0]	n/a	FR1	0	R1067P
390.146	0.349	369934	REC_WORD_VV	5.129	n/a	<>	-999	2	[0, 0, 0]	n/a	FR1	0	R1067P
390.495	2.459	370109	REC_WORD	5.478	n/a	COW	-999	2	[0, 0, 0]	n/a	FR1	0	R1067P
392.954	0.772	371338	REC_WORD_VV	7.937	n/a	<>	-999	2	[0, 0, 0]	n/a	FR1	0	R1067P
393.726	0.429	371724	REC_WORD	8.709	n/a	WORLD	-999	2	[0, 0, 0]	n/a	FR1	0	R1067P
394.155	1.0	371939	REC_WORD_VV	9.138	n/a	<>	-999	2	[0, 0, 0]	n/a	FR1	0	R1067P
395.155	0.418	372438	REC_WORD_VV	10.138	n/a	<>	-999	2	[0, 0, 0]	n/a	FR1	0	R1067P
395.573	4.943	372647	REC_WORD	10.556	n/a	WORLD	-999	2	[0, 0, 0]	n/a	FR1	0	R1067P
400.516	0.443	375119	REC_WORD_VV	15.499	n/a	<>	-999	2	[0, 0, 0]	n/a	FR1	0	R1067P
400.959	5.003	375340	REC_WORD	15.942	n/a	BOAT	-999	2	[0, 0, 0]	n/a	FR1	0	R1067P
405.962	1.0	377842	REC_WORD_VV	20.945	n/a	<>	-999	2	[0, 0, 0]	n/a	FR1	0	R1067P
406.962	0.222	378342	REC_WORD_VV	21.945	n/a	<>	-999	2	[0, 0, 0]	n/a	FR1	0	R1067P
407.184	1.692	378453	REC_WORD	22.167	n/a	DOLL	-999	2	[0, 0, 0]	n/a	FR1	0	R1067P
408.876	0.186	379299	REC_WORD_VV	23.859	n/a	<>	-999	2	[0, 0, 0]	n/a	FR1	0	R1067P
409.062	5.96	379392	REC_WORD	24.045	n/a	DOLL	-999	2	[0, 0, 0]	n/a	FR1	0	R1067P
415.022	7.629	382371	REC_END	n/a	n/a	n/a	-999	2	[0, 0, 0]	n/a	FR1	0	R1067P
422.651	10.0	386186	COUNTDOWN_START	n/a	n/a	n/a	-999	3	[0, 0, 0]	n/a	FR1	0	R1067P
422.652	10.427	386186	TRIAL	n/a	n/a	n/a	-999	3	[0, 0, 0]	n/a	FR1	0	R1067P
433.079	0.008	391400	COUNTDOWN_END	n/a	n/a	n/a	-999	3	[0, 0, 0]	n/a	FR1	0	R1067P
433.087	1.6	391404	ORIENT	n/a	n/a	n/a	-999	3	[0, 0, 0]	n/a	FR1	0	R1067P
435.704	1.6	392712	WORD	n/a	wordpools/wordpool_EN.txt	YARD	1	3	[0, 0, 0]	n/a	FR1	0	R1067P
438.204	1.6	393962	WORD	n/a	wordpools/wordpool_EN.txt	HOLE	2	3	[0, 0, 0]	n/a	FR1	0	R1067P
440.605	1.6	395162	WORD	n/a	wordpools/wordpool_EN.txt	BUSH	3	3	[0, 0, 0]	n/a	FR1	0	R1067P
443.205	1.6	396462	WORD	n/a	wordpools/wordpool_EN.txt	OWL	4	3	[0, 0, 0]	n/a	FR1	0	R1067P
445.606	1.6	397663	WORD	n/a	wordpools/wordpool_EN.txt	BRUSH	5	3	[0, 0, 0]	n/a	FR1	0	R1067P
448.106	1.6	398913	WORD	n/a	wordpools/wordpool_EN.txt	PIPE	6	3	[0, 0, 0]	n/a	FR1	0	R1067P
450.573	1.6	400146	WORD	n/a	wordpools/wordpool_EN.txt	CLIFF	7	3	[0, 0, 0]	n/a	FR1	0	R1067P
452.974	1.6	401347	WORD	n/a	wordpools/wordpool_EN.txt	MULE	8	3	[0, 0, 0]	n/a	FR1	0	R1067P
455.558	1.6	402638	WORD	n/a	wordpools/wordpool_EN.txt	SPEAR	9	3	[0, 0, 0]	n/a	FR1	0	R1067P
457.941	1.6	403830	WORD	n/a	wordpools/wordpool_EN.txt	BAND	10	3	[0, 0, 0]	n/a	FR1	0	R1067P
460.375	1.6	405047	WORD	n/a	wordpools/wordpool_EN.txt	FROG	11	3	[0, 0, 0]	n/a	FR1	0	R1067P
462.808	1.6	406263	WORD	n/a	wordpools/wordpool_EN.txt	ROOF	12	3	[0, 0, 0]	n/a	FR1	0	R1067P
464.426	0.001	407072	DISTRACT_START	n/a	n/a	n/a	-999	3	[0, 0, 0]	n/a	FR1	0	R1067P
464.427	0.015	407073	START	n/a	n/a	n/a	-999	3	[-999, -999, -999]	n/a	FR1	0	R1067P
464.442	4.851	407080	PROB	4.831	n/a	n/a	-999	3	[1, 7, 8]	16.0	FR1	0	R1067P
469.293	5.652	409506	PROB	5.628	n/a	n/a	-999	3	[6, 1, 8]	15.0	FR1	0	R1067P
474.945	5.883	412331	PROB	5.855	n/a	n/a	-999	3	[5, 6, 1]	12.0	FR1	0	R1067P
480.828	3.765	415273	PROB	3.765	n/a	n/a	-999	3	[1, 6, 3]	10.0	FR1	0	R1067P
484.593	0.003	417155	STOP	n/a	n/a	n/a	-999	3	[-999, -999, -999]	n/a	FR1	0	R1067P
484.596	1.175	417157	DISTRACT_END	n/a	n/a	n/a	-999	3	[0, 0, 0]	n/a	FR1	0	R1067P
485.771	0.742	417744	REC_START	n/a	n/a	n/a	-999	3	[0, 0, 0]	n/a	FR1	0	R1067P
486.513	3.14	418115	REC_WORD_VV	0.742	n/a	<>	-999	3	[0, 0, 0]	n/a	FR1	0	R1067P
489.653	8.273	419685	REC_WORD	3.882	n/a	YARD	-999	3	[0, 0, 0]	n/a	FR1	0	R1067P
497.926	9.11	423821	REC_WORD	12.155	n/a	BUSH	-999	3	[0, 0, 0]	n/a	FR1	0	R1067P
507.036	1.0	428376	REC_WORD_VV	21.265	n/a	<>	-999	3	[0, 0, 0]	n/a	FR1	0	R1067P
508.036	1.373	428876	REC_WORD_VV	22.265	n/a	<>	-999	3	[0, 0, 0]	n/a	FR1	0	R1067P
509.409	1.0	429563	REC_WORD_VV	23.638	n/a	<>	-999	3	[0, 0, 0]	n/a	FR1	0	R1067P
510.409	5.364	430063	REC_WORD_VV	24.638	n/a	<>	-999	3	[0, 0, 0]	n/a	FR1	0	R1067P
515.773	3.647	432744	REC_END	n/a	n/a	n/a	-999	3	[0, 0, 0]	n/a	FR1	0	R1067P
519.42	0.0	434568	TRIAL	n/a	n/a	n/a	-999	4	[0, 0, 0]	n/a	FR1	0	R1067P
519.42	10.0	434568	COUNTDOWN_START	n/a	n/a	n/a	-999	4	[0, 0, 0]	n/a	FR1	0	R1067P
529.848	0.007	439782	COUNTDOWN_END	n/a	n/a	n/a	-999	4	[0, 0, 0]	n/a	FR1	0	R1067P
529.855	1.6	439785	ORIENT	n/a	n/a	n/a	-999	4	[0, 0, 0]	n/a	FR1	0	R1067P
532.422	1.6	441069	WORD	n/a	wordpools/wordpool_EN.txt	CROW	1	4	[0, 0, 0]	n/a	FR1	0	R1067P
534.906	1.6	442311	WORD	n/a	wordpools/wordpool_EN.txt	SOAP	2	4	[0, 0, 0]	n/a	FR1	0	R1067P
537.456	1.6	443585	WORD	n/a	wordpools/wordpool_EN.txt	RUG	3	4	[0, 0, 0]	n/a	FR1	0	R1067P
539.923	1.6	444819	WORD	n/a	wordpools/wordpool_EN.txt	SUIT	4	4	[0, 0, 0]	n/a	FR1	0	R1067P
542.323	1.6	446019	WORD	n/a	wordpools/wordpool_EN.txt	FAN	5	4	[0, 0, 0]	n/a	FR1	0	R1067P
544.724	1.6	447219	WORD	n/a	wordpools/wordpool_EN.txt	GOAT	6	4	[0, 0, 0]	n/a	FR1	0	R1067P
547.308	1.6	448511	WORD	n/a	wordpools/wordpool_EN.txt	RIB	7	4	[0, 0, 0]	n/a	FR1	0	R1067P
549.909	1.6	449812	WORD	n/a	wordpools/wordpool_EN.txt	BOOT	8	4	[0, 0, 0]	n/a	FR1	0	R1067P
552.309	1.6	451012	WORD	n/a	wordpools/wordpool_EN.txt	SHIRT	9	4	[0, 0, 0]	n/a	FR1	0	R1067P
554.926	1.6	452320	WORD	n/a	wordpools/wordpool_EN.txt	FENCE	10	4	[0, 0, 0]	n/a	FR1	0	R1067P
557.343	1.6	453528	WORD	n/a	wordpools/wordpool_EN.txt	BROOM	11	4	[0, 0, 0]	n/a	FR1	0	R1067P
559.809	1.6	454761	WORD	n/a	wordpools/wordpool_EN.txt	PANTS	12	4	[0, 0, 0]	n/a	FR1	0	R1067P
561.41	0.001	455562	DISTRACT_START	n/a	n/a	n/a	-999	4	[0, 0, 0]	n/a	FR1	0	R1067P
561.411	0.016	455562	START	n/a	n/a	n/a	-999	4	[-999, -999, -999]	n/a	FR1	0	R1067P
561.427	5.801	455570	PROB	5.774	n/a	n/a	-999	4	[1, 7, 8]	16.0	FR1	0	R1067P
567.228	4.151	458471	PROB	4.117	n/a	n/a	-999	4	[3, 5, 8]	16.0	FR1	0	R1067P
571.379	3.801	460546	PROB	3.766	n/a	n/a	-999	4	[4, 3, 7]	14.0	FR1	0	R1067P
575.18	3.984	462447	PROB	3.949	n/a	n/a	-999	4	[3, 3, 4]	10.0	FR1	0	R1067P
579.164	3.749	464438	PROB	3.749	n/a	n/a	-999	4	[9, 2, 8]	19.0	FR1	0	R1067P
582.913	0.018	466313	STOP	n/a	n/a	n/a	-999	4	[-999, -999, -999]	n/a	FR1	0	R1067P
582.931	1.118	466322	DISTRACT_END	n/a	n/a	n/a	-999	4	[0, 0, 0]	n/a	FR1	0	R1067P
584.049	0.465	466881	REC_START	n/a	n/a	n/a	-999	4	[0, 0, 0]	n/a	FR1	0	R1067P
584.514	2.526	467113	REC_WORD_VV	0.465	n/a	<>	-999	4	[0, 0, 0]	n/a	FR1	0	R1067P
587.04	0.548	468376	REC_WORD_VV	2.991	n/a	<>	-999	4	[0, 0, 0]	n/a	FR1	0	R1067P
587.588	3.432	468650	REC_WORD	3.539	n/a	YARD	-999	4	[0, 0, 0]	n/a	FR1	0	R1067P
591.02	3.67	470366	REC_WORD	6.971	n/a	RUSH	-999	4	[0, 0, 0]	n/a	FR1	0	R1067P
594.69	16.755	472201	REC_WORD	10.641	n/a	PANTS	-999	4	[0, 0, 0]	n/a	FR1	0	R1067P
611.445	0.665	480578	REC_WORD_VV	27.396	n/a	<>	-999	4	[0, 0, 0]	n/a	FR1	0	R1067P
612.11	0.99	480911	REC_WORD	28.061	n/a	BROOM	-999	4	[0, 0, 0]	n/a	FR1	0	R1067P
613.1	0.272	481406	REC_WORD_VV	29.051	n/a	<>	-999	4	[0, 0, 0]	n/a	FR1	0	R1067P
613.372	0.3	481542	REC_WORD	29.323	n/a	BROOM	-999	4	[0, 0, 0]	n/a	FR1	0	R1067P
613.672	0.387	481692	REC_WORD_VV	29.623	n/a	<>	-999	4	[0, 0, 0]	n/a	FR1	0	R1067P
614.059	4.778	481885	REC_END	n/a	n/a	n/a	-999	4	[0, 0, 0]	n/a	FR1	0	R1067P
618.837	0.0	484274	TRIAL	n/a	n/a	n/a	-999	5	[0, 0, 0]	n/a	FR1	0	R1067P
618.837	10.0	484274	COUNTDOWN_START	n/a	n/a	n/a	-999	5	[0, 0, 0]	n/a	FR1	0	R1067P
629.265	0.008	489488	COUNTDOWN_END	n/a	n/a	n/a	-999	5	[0, 0, 0]	n/a	FR1	0	R1067P
629.273	1.6	489492	ORIENT	n/a	n/a	n/a	-999	5	[0, 0, 0]	n/a	FR1	0	R1067P
631.757	1.6	490734	WORD	n/a	wordpools/wordpool_EN.txt	BENCH	1	5	[0, 0, 0]	n/a	FR1	0	R1067P
634.341	1.6	492026	WORD	n/a	wordpools/wordpool_EN.txt	COUCH	2	5	[0, 0, 0]	n/a	FR1	0	R1067P
636.891	1.6	493300	WORD	n/a	wordpools/wordpool_EN.txt	POOL	3	5	[0, 0, 0]	n/a	FR1	0	R1067P
639.309	1.6	494509	WORD	n/a	wordpools/wordpool_EN.txt	AXE	4	5	[0, 0, 0]	n/a	FR1	0	R1067P
641.709	1.6	495709	WORD	n/a	wordpools/wordpool_EN.txt	TEA	5	5	[0, 0, 0]	n/a	FR1	0	R1067P
644.193	1.6	496951	WORD	n/a	wordpools/wordpool_EN.txt	FLOOR	6	5	[0, 0, 0]	n/a	FR1	0	R1067P
646.61	1.6	498160	WORD	n/a	wordpools/wordpool_EN.txt	LEG	7	5	[0, 0, 0]	n/a	FR1	0	R1067P
649.077	1.6	499393	WORD	n/a	wordpools/wordpool_EN.txt	HOUSE	8	5	[0, 0, 0]	n/a	FR1	0	R1067P
651.544	1.6	500627	WORD	n/a	wordpools/wordpool_EN.txt	PURSE	9	5	[0, 0, 0]	n/a	FR1	0	R1067P
653.994	1.6	501852	WORD	n/a	wordpools/wordpool_EN.txt	PALM	10	5	[0, 0, 0]	n/a	FR1	0	R1067P
656.445	1.6	503077	WORD	n/a	wordpools/wordpool_EN.txt	DART	11	5	[0, 0, 0]	n/a	FR1	0	R1067P
659.012	1.6	504360	WORD	n/a	wordpools/wordpool_EN.txt	SHOE	12	5	[0, 0, 0]	n/a	FR1	0	R1067P
660.629	0.001	505169	DISTRACT_START	n/a	n/a	n/a	-999	5	[0, 0, 0]	n/a	FR1	0	R1067P
660.63	0.016	505169	START	n/a	n/a	n/a	-999	5	[-999, -999, -999]	n/a	FR1	0	R1067P
660.646	4.601	505177	PROB	4.571	n/a	n/a	-999	5	[1, 1, 5]	7.0	FR1	0	R1067P
665.247	6.284	507478	PROB	6.25	n/a	n/a	-999	5	[5, 8, 6]	19.0	FR1	0	R1067P
671.531	4.368	510620	PROB	4.334	n/a	n/a	-999	5	[2, 1, 2]	5.0	FR1	0	R1067P
675.899	3.567	512804	PROB	3.534	n/a	n/a	-999	5	[4, 1, 5]	10.0	FR1	0	R1067P
679.466	3.495	514587	PROB	3.495	n/a	n/a	-999	5	[7, 2, 2]	11.0	FR1	0	R1067P
682.961	0.006	516334	STOP	n/a	n/a	n/a	-999	5	[-999, -999, -999]	n/a	FR1	0	R1067P
682.967	1.217	516337	DISTRACT_END	n/a	n/a	n/a	-999	5	[0, 0, 0]	n/a	FR1	0	R1067P
684.184	1.072	516946	REC_START	n/a	n/a	n/a	-999	5	[0, 0, 0]	n/a	FR1	0	R1067P
685.256	1.558	517482	REC_WORD_VV	1.072	n/a	<>	-999	5	[0, 0, 0]	n/a	FR1	0	R1067P
686.814	1.186	518261	REC_WORD_VV	2.63	n/a	<>	-999	5	[0, 0, 0]	n/a	FR1	0	R1067P
688.0	0.449	518854	REC_WORD_VV	3.816	n/a	<>	-999	5	[0, 0, 0]	n/a	FR1	0	R1067P
688.449	2.889	519078	REC_WORD	4.265	n/a	BENCH	-999	5	[0, 0, 0]	n/a	FR1	0	R1067P
691.338	0.273	520523	REC_WORD_VV	7.154	n/a	<>	-999	5	[0, 0, 0]	n/a	FR1	0	R1067P
691.611	9.519	520659	REC_WORD	7.427	n/a	YARD	-999	5	[0, 0, 0]	n/a	FR1	0	R1067P
701.13	1.089	525418	REC_WORD	16.946	n/a	POOL	-999	5	[0, 0, 0]	n/a	FR1	0	R1067P
702.219	0.217	525963	REC_WORD_VV	18.035	n/a	<>	-999	5	[0, 0, 0]	n/a	FR1	0	R1067P
702.436	1.123	526071	REC_WORD	18.252	n/a	POOL	-999	5	[0, 0, 0]	n/a	FR1	0	R1067P
703.559	0.334	526633	REC_WORD	19.375	n/a	BENCH	-999	5	[0, 0, 0]	n/a	FR1	0	R1067P
703.893	0.37	526800	REC_WORD	19.709	n/a	YARD	-999	5	[0, 0, 0]	n/a	FR1	0	R1067P
704.263	1.653	526985	REC_WORD	20.079	n/a	POOL	-999	5	[0, 0, 0]	n/a	FR1	0	R1067P
705.916	1.0	527811	REC_WORD_VV	21.732	n/a	<>	-999	5	[0, 0, 0]	n/a	FR1	0	R1067P
706.916	2.143	528311	REC_WORD_VV	22.732	n/a	<>	-999	5	[0, 0, 0]	n/a	FR1	0	R1067P
709.059	3.19	529383	REC_WORD_VV	24.875	n/a	<>	-999	5	[0, 0, 0]	n/a	FR1	0	R1067P
712.249	1.949	530978	REC_WORD_VV	28.065	n/a	<>	-999	5	[0, 0, 0]	n/a	FR1	0	R1067P
714.198	5.742	531952	REC_END	n/a	n/a	n/a	-999	5	[0, 0, 0]	n/a	FR1	0	R1067P
719.94	10.0	534823	COUNTDOWN_START	n/a	n/a	n/a	-999	6	[0, 0, 0]	n/a	FR1	0	R1067P
719.941	10.427	534823	TRIAL	n/a	n/a	n/a	-999	6	[0, 0, 0]	n/a	FR1	0	R1067P
730.368	0.008	540037	COUNTDOWN_END	n/a	n/a	n/a	-999	6	[0, 0, 0]	n/a	FR1	0	R1067P
730.376	1.6	540041	ORIENT	n/a	n/a	n/a	-999	6	[0, 0, 0]	n/a	FR1	0	R1067P
732.909	1.6	541307	WORD	n/a	wordpools/wordpool_EN.txt	STOVE	1	6	[0, 0, 0]	n/a	FR1	0	R1067P
735.327	1.6	542516	WORD	n/a	wordpools/wordpool_EN.txt	TRUCK	2	6	[0, 0, 0]	n/a	FR1	0	R1067P
737.744	1.6	543724	WORD	n/a	wordpools/wordpool_EN.txt	PARK	3	6	[0, 0, 0]	n/a	FR1	0	R1067P
740.294	1.6	544999	WORD	n/a	wordpools/wordpool_EN.txt	SIGN	4	6	[0, 0, 0]	n/a	FR1	0	R1067P
742.711	1.6	546208	WORD	n/a	wordpools/wordpool_EN.txt	BATH	5	6	[0, 0, 0]	n/a	FR1	0	R1067P
745.245	1.6	547475	WORD	n/a	wordpools/wordpool_EN.txt	STAIR	6	6	[0, 0, 0]	n/a	FR1	0	R1067P
747.646	1.6	548675	WORD	n/a	wordpools/wordpool_EN.txt	STRAW	7	6	[0, 0, 0]	n/a	FR1	0	R1067P
750.179	1.6	549942	WORD	n/a	wordpools/wordpool_EN.txt	MILK	8	6	[0, 0, 0]	n/a	FR1	0	R1067P
752.58	1.6	551142	WORD	n/a	wordpools/wordpool_EN.txt	VEST	9	6	[0, 0, 0]	n/a	FR1	0	R1067P
755.13	1.6	552417	WORD	n/a	wordpools/wordpool_EN.txt	SWAMP	10	6	[0, 0, 0]	n/a	FR1	0	R1067P
757.747	1.6	553725	WORD	n/a	wordpools/wordpool_EN.txt	FARM	11	6	[0, 0, 0]	n/a	FR1	0	R1067P
760.198	1.6	554951	WORD	n/a	wordpools/wordpool_EN.txt	WEED	12	6	[0, 0, 0]	n/a	FR1	0	R1067P
761.814	0.001	555759	DISTRACT_START	n/a	n/a	n/a	-999	6	[0, 0, 0]	n/a	FR1	0	R1067P
761.815	0.016	555759	START	n/a	n/a	n/a	-999	6	[-999, -999, -999]	n/a	FR1	0	R1067P
761.831	5.984	555767	PROB	5.961	n/a	n/a	-999	6	[3, 1, 9]	13.0	FR1	0	R1067P
767.815	4.519	558759	PROB	4.49	n/a	n/a	-999	6	[2, 5, 2]	9.0	FR1	0	R1067P
772.334	4.634	561019	PROB	4.603	n/a	n/a	-999	6	[4, 3, 7]	14.0	FR1	0	R1067P
776.968	4.05	563335	PROB	4.017	n/a	n/a	-999	6	[6, 4, 3]	13.0	FR1	0	R1067P
781.018	5.895	565360	PROB	5.895	n/a	n/a	-999	6	[6, 7, 8]	21.0	FR1	0	R1067P
786.913	0.007	568308	STOP	n/a	n/a	n/a	-999	6	[-999, -999, -999]	n/a	FR1	0	R1067P
786.92	1.217	568311	DISTRACT_END	n/a	n/a	n/a	-999	6	[0, 0, 0]	n/a	FR1	0	R1067P
788.137	0.767	568920	REC_START	n/a	n/a	n/a	-999	6	[0, 0, 0]	n/a	FR1	0	R1067P
788.904	4.241	569303	REC_WORD_VV	0.767	n/a	<>	-999	6	[0, 0, 0]	n/a	FR1	0	R1067P
793.145	5.032	571424	REC_WORD_VV	5.008	n/a	<>	-999	6	[0, 0, 0]	n/a	FR1	0	R1067P
798.177	1.0	573939	REC_WORD_VV	10.04	n/a	<>	-999	6	[0, 0, 0]	n/a	FR1	0	R1067P
799.177	1.0	574439	REC_WORD_VV	11.04	n/a	<>	-999	6	[0, 0, 0]	n/a	FR1	0	R1067P
800.177	1.0	574939	REC_WORD_VV	12.04	n/a	<>	-999	6	[0, 0, 0]	n/a	FR1	0	R1067P
801.177	1.844	575439	REC_WORD_VV	13.04	n/a	<>	-999	6	[0, 0, 0]	n/a	FR1	0	R1067P
803.021	0.403	576361	REC_WORD_VV	14.884	n/a	<>	-999	6	[0, 0, 0]	n/a	FR1	0	R1067P
803.424	0.479	576563	REC_WORD	15.287	n/a	YARD	-999	6	[0, 0, 0]	n/a	FR1	0	R1067P
803.903	1.0	576802	REC_WORD_VV	15.766	n/a	<>	-999	6	[0, 0, 0]	n/a	FR1	0	R1067P
804.903	1.452	577302	REC_WORD_VV	16.766	n/a	<>	-999	6	[0, 0, 0]	n/a	FR1	0	R1067P
806.355	1.0	578028	REC_WORD_VV	18.218	n/a	<>	-999	6	[0, 0, 0]	n/a	FR1	0	R1067P
807.355	1.0	578528	REC_WORD_VV	19.218	n/a	<>	-999	6	[0, 0, 0]	n/a	FR1	0	R1067P
808.355	1.0	579028	REC_WORD_VV	20.218	n/a	<>	-999	6	[0, 0, 0]	n/a	FR1	0	R1067P
809.355	1.369	579528	REC_WORD_VV	21.218	n/a	<>	-999	6	[0, 0, 0]	n/a	FR1	0	R1067P
810.724	1.0	580213	REC_WORD_VV	22.587	n/a	<>	-999	6	[0, 0, 0]	n/a	FR1	0	R1067P
811.724	1.0	580713	REC_WORD_VV	23.587	n/a	<>	-999	6	[0, 0, 0]	n/a	FR1	0	R1067P
812.724	1.0	581213	REC_WORD_VV	24.587	n/a	<>	-999	6	[0, 0, 0]	n/a	FR1	0	R1067P
813.724	1.0	581713	REC_WORD_VV	25.587	n/a	<>	-999	6	[0, 0, 0]	n/a	FR1	0	R1067P
814.724	3.424	582213	REC_WORD_VV	26.587	n/a	<>	-999	6	[0, 0, 0]	n/a	FR1	0	R1067P
818.148	3.895	583924	REC_END	n/a	n/a	n/a	-999	6	[0, 0, 0]	n/a	FR1	0	R1067P
822.043	0.0	585872	TRIAL	n/a	n/a	n/a	-999	7	[0, 0, 0]	n/a	FR1	0	R1067P
822.043	10.0	585872	COUNTDOWN_START	n/a	n/a	n/a	-999	7	[0, 0, 0]	n/a	FR1	0	R1067P
832.471	0.007	591086	COUNTDOWN_END	n/a	n/a	n/a	-999	7	[0, 0, 0]	n/a	FR1	0	R1067P
832.478	1.6	591089	ORIENT	n/a	n/a	n/a	-999	7	[0, 0, 0]	n/a	FR1	0	R1067P
835.045	1.6	592373	WORD	n/a	wordpools/wordpool_EN.txt	MAP	1	7	[0, 0, 0]	n/a	FR1	0	R1067P
837.546	1.6	593623	WORD	n/a	wordpools/wordpool_EN.txt	SEED	2	7	[0, 0, 0]	n/a	FR1	0	R1067P
840.096	1.6	594898	WORD	n/a	wordpools/wordpool_EN.txt	SHELL	3	7	[0, 0, 0]	n/a	FR1	0	R1067P
842.647	1.6	596173	WORD	n/a	wordpools/wordpool_EN.txt	GOLD	4	7	[0, 0, 0]	n/a	FR1	0	R1067P
845.097	1.6	597398	WORD	n/a	wordpools/wordpool_EN.txt	SNAKE	5	7	[0, 0, 0]	n/a	FR1	0	R1067P
847.598	1.6	598649	WORD	n/a	wordpools/wordpool_EN.txt	PLANT	6	7	[0, 0, 0]	n/a	FR1	0	R1067P
849.998	1.6	599849	WORD	n/a	wordpools/wordpool_EN.txt	WORLD	7	7	[0, 0, 0]	n/a	FR1	0	R1067P
852.599	1.6	601149	WORD	n/a	wordpools/wordpool_EN.txt	STEM	8	7	[0, 0, 0]	n/a	FR1	0	R1067P
855.216	1.6	602458	WORD	n/a	wordpools/wordpool_EN.txt	ROSE	9	7	[0, 0, 0]	n/a	FR1	0	R1067P
857.749	1.6	603724	WORD	n/a	wordpools/wordpool_EN.txt	MOTH	10	7	[0, 0, 0]	n/a	FR1	0	R1067P
860.2	1.6	604949	WORD	n/a	wordpools/wordpool_EN.txt	CLOUD	11	7	[0, 0, 0]	n/a	FR1	0	R1067P
862.584	1.6	606141	WORD	n/a	wordpools/wordpool_EN.txt	KEY	12	7	[0, 0, 0]	n/a	FR1	0	R1067P
864.2	0.001	606949	DISTRACT_START	n/a	n/a	n/a	-999	7	[0, 0, 0]	n/a	FR1	0	R1067P
864.201	0.016	606950	START	n/a	n/a	n/a	-999	7	[-999, -999, -999]	n/a	FR1	0	R1067P
864.217	4.535	606958	PROB	4.504	n/a	n/a	-999	7	[1, 2, 5]	8.0	FR1	0	R1067P
868.752	8.384	609225	PROB	8.361	n/a	n/a	-999	7	[9, 8, 7]	24.0	FR1	0	R1067P
877.136	4.568	613417	PROB	4.537	n/a	n/a	-999	7	[9, 1, 8]	18.0	FR1	0	R1067P
881.704	4.289	615701	PROB	4.289	n/a	n/a	-999	7	[4, 9, 8]	21.0	FR1	0	R1067P
885.993	0.012	617845	STOP	n/a	n/a	n/a	-999	7	[-999, -999, -999]	n/a	FR1	0	R1067P
886.005	1.051	617851	DISTRACT_END	n/a	n/a	n/a	-999	7	[0, 0, 0]	n/a	FR1	0	R1067P
887.056	0.65	618377	REC_START	n/a	n/a	n/a	-999	7	[0, 0, 0]	n/a	FR1	0	R1067P
887.706	1.109	618702	REC_WORD_VV	0.65	n/a	<>	-999	7	[0, 0, 0]	n/a	FR1	0	R1067P
888.815	0.425	619256	REC_WORD_VV	1.759	n/a	<>	-999	7	[0, 0, 0]	n/a	FR1	0	R1067P
889.24	8.106	619469	REC_WORD	2.184	n/a	ROSE	-999	7	[0, 0, 0]	n/a	FR1	0	R1067P
897.346	1.021	623522	REC_WORD_VV	10.29	n/a	<>	-999	7	[0, 0, 0]	n/a	FR1	0	R1067P
898.367	1.0	624032	REC_WORD_VV	11.311	n/a	<>	-999	7	[0, 0, 0]	n/a	FR1	0	R1067P
899.367	11.23	624532	REC_WORD_VV	12.311	n/a	<>	-999	7	[0, 0, 0]	n/a	FR1	0	R1067P
910.597	0.731	630147	REC_WORD	23.541	n/a	ROSE	-999	7	[0, 0, 0]	n/a	FR1	0	R1067P
911.328	3.102	630512	REC_WORD_VV	24.272	n/a	<>	-999	7	[0, 0, 0]	n/a	FR1	0	R1067P
914.43	1.0	632063	REC_WORD_VV	27.374	n/a	<>	-999	7	[0, 0, 0]	n/a	FR1	0	R1067P
915.43	1.636	632563	REC_WORD_VV	28.374	n/a	<>	-999	7	[0, 0, 0]	n/a	FR1	0	R1067P
917.066	9.38	633381	REC_END	n/a	n/a	n/a	-999	7	[0, 0, 0]	n/a	FR1	0	R1067P
926.446	0.0	638071	TRIAL	n/a	n/a	n/a	-999	8	[0, 0, 0]	n/a	FR1	0	R1067P
926.446	10.0	638071	COUNTDOWN_START	n/a	n/a	n/a	-999	8	[0, 0, 0]	n/a	FR1	0	R1067P
936.874	0.007	643285	COUNTDOWN_END	n/a	n/a	n/a	-999	8	[0, 0, 0]	n/a	FR1	0	R1067P
936.881	1.6	643288	ORIENT	n/a	n/a	n/a	-999	8	[0, 0, 0]	n/a	FR1	0	R1067P
939.498	1.6	644596	WORD	n/a	wordpools/wordpool_EN.txt	NAIL	1	8	[0, 0, 0]	n/a	FR1	0	R1067P
941.932	1.6	645813	WORD	n/a	wordpools/wordpool_EN.txt	PIT	2	8	[0, 0, 0]	n/a	FR1	0	R1067P
944.466	1.6	647080	WORD	n/a	wordpools/wordpool_EN.txt	FOOT	3	8	[0, 0, 0]	n/a	FR1	0	R1067P
946.983	1.6	648339	WORD	n/a	wordpools/wordpool_EN.txt	FACE	4	8	[0, 0, 0]	n/a	FR1	0	R1067P
949.583	1.6	649639	WORD	n/a	wordpools/wordpool_EN.txt	HILL	5	8	[0, 0, 0]	n/a	FR1	0	R1067P
952.184	1.6	650939	WORD	n/a	wordpools/wordpool_EN.txt	STICK	6	8	[0, 0, 0]	n/a	FR1	0	R1067P
954.751	1.6	652223	WORD	n/a	wordpools/wordpool_EN.txt	SOCK	7	8	[0, 0, 0]	n/a	FR1	0	R1067P
957.168	1.6	653431	WORD	n/a	wordpools/wordpool_EN.txt	DRESS	8	8	[0, 0, 0]	n/a	FR1	0	R1067P
959.585	1.6	654639	WORD	n/a	wordpools/wordpool_EN.txt	CONE	9	8	[0, 0, 0]	n/a	FR1	0	R1067P
962.069	1.6	655881	WORD	n/a	wordpools/wordpool_EN.txt	FLAME	10	8	[0, 0, 0]	n/a	FR1	0	R1067P
964.653	1.6	657173	WORD	n/a	wordpools/wordpool_EN.txt	BAG	11	8	[0, 0, 0]	n/a	FR1	0	R1067P
967.087	1.6	658390	WORD	n/a	wordpools/wordpool_EN.txt	FUDGE	12	8	[0, 0, 0]	n/a	FR1	0	R1067P
968.704	0.0	659199	DISTRACT_START	n/a	n/a	n/a	-999	8	[0, 0, 0]	n/a	FR1	0	R1067P
968.704	0.016	659199	START	n/a	n/a	n/a	-999	8	[-999, -999, -999]	n/a	FR1	0	R1067P
968.72	9.935	659207	PROB	9.913	n/a	n/a	-999	8	[8, 9, 7]	24.0	FR1	0	R1067P
978.655	4.101	664174	PROB	4.074	n/a	n/a	-999	8	[4, 4, 7]	15.0	FR1	0	R1067P
982.756	5.501	666224	PROB	5.469	n/a	n/a	-999	8	[8, 5, 7]	20.0	FR1	0	R1067P
988.257	3.416	668975	PROB	3.416	n/a	n/a	-999	8	[9, 9, 3]	21.0	FR1	0	R1067P
991.673	0.018	670683	STOP	n/a	n/a	n/a	-999	8	[-999, -999, -999]	n/a	FR1	0	R1067P
991.691	1.051	670692	DISTRACT_END	n/a	n/a	n/a	-999	8	[0, 0, 0]	n/a	FR1	0	R1067P
992.742	0.44	671217	REC_START	n/a	n/a	n/a	-999	8	[0, 0, 0]	n/a	FR1	0	R1067P
993.182	1.45	671437	REC_WORD_VV	0.44	n/a	<>	-999	8	[0, 0, 0]	n/a	FR1	0	R1067P
994.632	1.562	672162	REC_WORD_VV	1.89	n/a	<>	-999	8	[0, 0, 0]	n/a	FR1	0	R1067P
996.194	0.852	672943	REC_WORD_VV	3.452	n/a	<>	-999	8	[0, 0, 0]	n/a	FR1	0	R1067P
997.046	4.648	673369	REC_WORD	4.304	n/a	FOOT	-999	8	[0, 0, 0]	n/a	FR1	0	R1067P
1001.694	1.0	675693	REC_WORD_VV	8.952	n/a	<>	-999	8	[0, 0, 0]	n/a	FR1	0	R1067P
1002.694	9.297	676193	REC_WORD_VV	9.952	n/a	<>	-999	8	[0, 0, 0]	n/a	FR1	0	R1067P
1011.991	0.438	680841	REC_WORD	19.249	n/a	YARD	-999	8	[0, 0, 0]	n/a	FR1	0	R1067P
1012.429	1.0	681060	REC_WORD_VV	19.687	n/a	<>	-999	8	[0, 0, 0]	n/a	FR1	0	R1067P
1013.429	0.895	681560	REC_WORD_VV	20.687	n/a	<>	-999	8	[0, 0, 0]	n/a	FR1	0	R1067P
1014.324	0.705	682008	REC_WORD_VV	21.582	n/a	<>	-999	8	[0, 0, 0]	n/a	FR1	0	R1067P
1015.029	0.401	682360	REC_WORD	22.287	n/a	WOOD	-999	8	[0, 0, 0]	n/a	FR1	0	R1067P
1015.43	1.0	682561	REC_WORD_VV	22.688	n/a	<>	-999	8	[0, 0, 0]	n/a	FR1	0	R1067P
1016.43	1.0	683061	REC_WORD_VV	23.688	n/a	<>	-999	8	[0, 0, 0]	n/a	FR1	0	R1067P
1017.43	1.935	683561	REC_WORD_VV	24.688	n/a	<>	-999	8	[0, 0, 0]	n/a	FR1	0	R1067P
1019.365	0.715	684528	REC_WORD	26.623	n/a	ROSE	-999	8	[0, 0, 0]	n/a	FR1	0	R1067P
1020.08	2.552	684885	REC_WORD_VV	27.338	n/a	<>	-999	8	[0, 0, 0]	n/a	FR1	0	R1067P
1022.632	0.12	686161	REC_WORD_VV	29.89	n/a	<>	-999	8	[0, 0, 0]	n/a	FR1	0	R1067P
1022.752	22.149	686221	REC_END	n/a	n/a	n/a	-999	8	[0, 0, 0]	n/a	FR1	0	R1067P
1044.901	0.0	697295	TRIAL	n/a	n/a	n/a	-999	9	[0, 0, 0]	n/a	FR1	0	R1067P
1044.901	10.0	697295	COUNTDOWN_START	n/a	n/a	n/a	-999	9	[0, 0, 0]	n/a	FR1	0	R1067P
1055.329	0.007	702509	COUNTDOWN_END	n/a	n/a	n/a	-999	9	[0, 0, 0]	n/a	FR1	0	R1067P
1055.336	1.6	702513	ORIENT	n/a	n/a	n/a	-999	9	[0, 0, 0]	n/a	FR1	0	R1067P
1057.769	1.6	703729	WORD	n/a	wordpools/wordpool_EN.txt	SMILE	1	9	[0, 0, 0]	n/a	FR1	0	R1067P
1060.271	1.6	704980	WORD	n/a	wordpools/wordpool_EN.txt	LAKE	2	9	[0, 0, 0]	n/a	FR1	0	R1067P
1062.655	1.6	706172	WORD	n/a	wordpools/wordpool_EN.txt	TRAY	3	9	[0, 0, 0]	n/a	FR1	0	R1067P
1065.038	1.6	707363	WORD	n/a	wordpools/wordpool_EN.txt	SUN	4	9	[0, 0, 0]	n/a	FR1	0	R1067P
1067.439	1.6	708564	WORD	n/a	wordpools/wordpool_EN.txt	THUMB	5	9	[0, 0, 0]	n/a	FR1	0	R1067P
1069.939	1.6	709814	WORD	n/a	wordpools/wordpool_EN.txt	SKY	6	9	[0, 0, 0]	n/a	FR1	0	R1067P
1072.473	1.6	711081	WORD	n/a	wordpools/wordpool_EN.txt	BEACH	7	9	[0, 0, 0]	n/a	FR1	0	R1067P
1075.073	1.6	712381	WORD	n/a	wordpools/wordpool_EN.txt	BEAK	8	9	[0, 0, 0]	n/a	FR1	0	R1067P
1077.674	1.6	713681	WORD	n/a	wordpools/wordpool_EN.txt	WALL	9	9	[0, 0, 0]	n/a	FR1	0	R1067P
1080.224	1.6	714956	WORD	n/a	wordpools/wordpool_EN.txt	STORM	10	9	[0, 0, 0]	n/a	FR1	0	R1067P
1082.758	1.6	716223	WORD	n/a	wordpools/wordpool_EN.txt	BIRD	11	9	[0, 0, 0]	n/a	FR1	0	R1067P
1085.242	1.6	717465	WORD	n/a	wordpools/wordpool_EN.txt	TIE	12	9	[0, 0, 0]	n/a	FR1	0	R1067P
1086.859	0.001	718273	DISTRACT_START	n/a	n/a	n/a	-999	9	[0, 0, 0]	n/a	FR1	0	R1067P
1086.86	0.016	718274	START	n/a	n/a	n/a	-999	9	[-999, -999, -999]	n/a	FR1	0	R1067P
1086.876	5.817	718282	PROB	5.789	n/a	n/a	-999	9	[8, 6, 9]	23.0	FR1	0	R1067P
1092.693	3.351	721190	PROB	3.316	n/a	n/a	-999	9	[6, 2, 1]	8.0	FR1	0	R1067P
1096.044	5.434	722866	PROB	5.404	n/a	n/a	-999	9	[2, 9, 5]	16.0	FR1	0	R1067P
1101.478	5.867	725582	PROB	5.867	n/a	n/a	-999	9	[2, 9, 8]	19.0	FR1	0	R1067P
1107.345	0.018	728516	STOP	n/a	n/a	n/a	-999	9	[-999, -999, -999]	n/a	FR1	0	R1067P
1107.363	1.167	728525	DISTRACT_END	n/a	n/a	n/a	-999	9	[0, 0, 0]	n/a	FR1	0	R1067P
1108.53	0.246	729108	REC_START	n/a	n/a	n/a	-999	9	[0, 0, 0]	n/a	FR1	0	R1067P
1108.776	2.977	729231	REC_WORD_VV	0.246	n/a	<>	-999	9	[0, 0, 0]	n/a	FR1	0	R1067P
1111.753	1.232	730720	REC_WORD	3.223	n/a	ROSE	-999	9	[0, 0, 0]	n/a	FR1	0	R1067P
1112.985	1.0	731336	REC_WORD_VV	4.455	n/a	<>	-999	9	[0, 0, 0]	n/a	FR1	0	R1067P
1113.985	1.214	731836	REC_WORD_VV	5.455	n/a	<>	-999	9	[0, 0, 0]	n/a	FR1	0	R1067P
1115.199	1.494	732443	REC_WORD_VV	6.669	n/a	<>	-999	9	[0, 0, 0]	n/a	FR1	0	R1067P
1116.693	1.0	733190	REC_WORD_VV	8.163	n/a	<>	-999	9	[0, 0, 0]	n/a	FR1	0	R1067P
1117.693	1.0	733690	REC_WORD_VV	9.163	n/a	<>	-999	9	[0, 0, 0]	n/a	FR1	0	R1067P
1118.693	0.885	734190	REC_WORD_VV	10.163	n/a	<>	-999	9	[0, 0, 0]	n/a	FR1	0	R1067P
1119.578	1.0	734632	REC_WORD_VV	11.048	n/a	<>	-999	9	[0, 0, 0]	n/a	FR1	0	R1067P
1120.578	1.0	735132	REC_WORD_VV	12.048	n/a	<>	-999	9	[0, 0, 0]	n/a	FR1	0	R1067P
1121.578	1.0	735632	REC_WORD_VV	13.048	n/a	<>	-999	9	[0, 0, 0]	n/a	FR1	0	R1067P
1122.578	1.0	736132	REC_WORD_VV	14.048	n/a	<>	-999	9	[0, 0, 0]	n/a	FR1	0	R1067P
1123.578	2.939	736632	REC_WORD_VV	15.048	n/a	<>	-999	9	[0, 0, 0]	n/a	FR1	0	R1067P
1126.517	8.823	738101	REC_WORD_VV	17.987	n/a	<>	-999	9	[0, 0, 0]	n/a	FR1	0	R1067P
1135.34	3.207	742513	REC_WORD_VV	26.81	n/a	<>	-999	9	[0, 0, 0]	n/a	FR1	0	R1067P
1138.547	6.606	744116	REC_END	n/a	n/a	n/a	-999	9	[0, 0, 0]	n/a	FR1	0	R1067P
1145.153	0.0	747419	TRIAL	n/a	n/a	n/a	-999	10	[0, 0, 0]	n/a	FR1	0	R1067P
1145.153	10.0	747419	COUNTDOWN_START	n/a	n/a	n/a	-999	10	[0, 0, 0]	n/a	FR1	0	R1067P
1155.581	0.008	752633	COUNTDOWN_END	n/a	n/a	n/a	-999	10	[0, 0, 0]	n/a	FR1	0	R1067P
1155.589	1.6	752637	ORIENT	n/a	n/a	n/a	-999	10	[0, 0, 0]	n/a	FR1	0	R1067P
1158.006	1.6	753845	WORD	n/a	wordpools/wordpool_EN.txt	LAMP	1	10	[0, 0, 0]	n/a	FR1	0	R1067P
1160.556	1.6	755120	WORD	n/a	wordpools/wordpool_EN.txt	BOX	2	10	[0, 0, 0]	n/a	FR1	0	R1067P
1162.94	1.6	756312	WORD	n/a	wordpools/wordpool_EN.txt	CHAIR	3	10	[0, 0, 0]	n/a	FR1	0	R1067P
1165.49	1.6	757587	WORD	n/a	wordpools/wordpool_EN.txt	PHONE	4	10	[0, 0, 0]	n/a	FR1	0	R1067P
1168.108	1.6	758896	WORD	n/a	wordpools/wordpool_EN.txt	GATE	5	10	[0, 0, 0]	n/a	FR1	0	R1067P
1170.608	1.6	760146	WORD	n/a	wordpools/wordpool_EN.txt	OAK	6	10	[0, 0, 0]	n/a	FR1	0	R1067P
1173.125	1.6	761404	WORD	n/a	wordpools/wordpool_EN.txt	SHARK	7	10	[0, 0, 0]	n/a	FR1	0	R1067P
1175.726	1.6	762705	WORD	n/a	wordpools/wordpool_EN.txt	LOCK	8	10	[0, 0, 0]	n/a	FR1	0	R1067P
1178.126	1.6	763905	WORD	n/a	wordpools/wordpool_EN.txt	STREET	9	10	[0, 0, 0]	n/a	FR1	0	R1067P
1180.627	1.6	765155	WORD	n/a	wordpools/wordpool_EN.txt	MAZE	10	10	[0, 0, 0]	n/a	FR1	0	R1067P
1183.094	1.6	766388	WORD	n/a	wordpools/wordpool_EN.txt	CLOCK	11	10	[0, 0, 0]	n/a	FR1	0	R1067P
1185.577	1.6	767630	WORD	n/a	wordpools/wordpool_EN.txt	LAWN	12	10	[0, 0, 0]	n/a	FR1	0	R1067P
1187.195	0.0	768439	DISTRACT_START	n/a	n/a	n/a	-999	10	[0, 0, 0]	n/a	FR1	0	R1067P
1187.195	0.016	768439	START	n/a	n/a	n/a	-999	10	[-999, -999, -999]	n/a	FR1	0	R1067P
1187.211	4.684	768447	PROB	4.654	n/a	n/a	-999	10	[4, 5, 2]	11.0	FR1	0	R1067P
1191.895	3.401	770789	PROB	3.378	n/a	n/a	-999	10	[6, 2, 3]	11.0	FR1	0	R1067P
1195.296	4.718	772489	PROB	4.697	n/a	n/a	-999	10	[5, 2, 9]	16.0	FR1	0	R1067P
1200.014	3.517	774848	PROB	3.483	n/a	n/a	-999	10	[3, 7, 8]	18.0	FR1	0	R1067P
1203.531	3.798	776606	PROB	3.798	n/a	n/a	-999	10	[3, 8, 8]	19.0	FR1	0	R1067P
1207.329	0.019	778505	STOP	n/a	n/a	n/a	-999	10	[-999, -999, -999]	n/a	FR1	0	R1067P
1207.348	1.151	778515	DISTRACT_END	n/a	n/a	n/a	-999	10	[0, 0, 0]	n/a	FR1	0	R1067P
1208.499	0.5	779090	REC_START	n/a	n/a	n/a	-999	10	[0, 0, 0]	n/a	FR1	0	R1067P
1208.999	0.999	779340	REC_WORD_VV	0.5	n/a	<>	-999	10	[0, 0, 0]	n/a	FR1	0	R1067P
1209.998	1.916	779840	REC_WORD	1.499	n/a	LAMP	-999	10	[0, 0, 0]	n/a	FR1	0	R1067P
1211.914	0.564	780798	REC_WORD_VV	3.415	n/a	<>	-999	10	[0, 0, 0]	n/a	FR1	0	R1067P
1212.478	5.231	781080	REC_WORD	3.979	n/a	BOX	-999	10	[0, 0, 0]	n/a	FR1	0	R1067P
1217.709	2.301	783695	REC_WORD_VV	9.21	n/a	<>	-999	10	[0, 0, 0]	n/a	FR1	0	R1067P
1220.01	10.222	784845	REC_WORD	11.511	n/a	YARD	-999	10	[0, 0, 0]	n/a	FR1	0	R1067P
1230.232	1.0	789956	REC_WORD_VV	21.733	n/a	<>	-999	10	[0, 0, 0]	n/a	FR1	0	R1067P
1231.232	1.0	790456	REC_WORD_VV	22.733	n/a	<>	-999	10	[0, 0, 0]	n/a	FR1	0	R1067P
1232.232	6.279	790956	REC_WORD_VV	23.733	n/a	<>	-999	10	[0, 0, 0]	n/a	FR1	0	R1067P
1238.511	4.11	794096	REC_END	n/a	n/a	n/a	-999	10	[0, 0, 0]	n/a	FR1	0	R1067P
1242.621	10.0	796150	COUNTDOWN_START	n/a	n/a	n/a	-999	11	[0, 0, 0]	n/a	FR1	0	R1067P
1242.622	10.427	796151	TRIAL	n/a	n/a	n/a	-999	11	[0, 0, 0]	n/a	FR1	0	R1067P
1253.049	0.008	801364	COUNTDOWN_END	n/a	n/a	n/a	-999	11	[0, 0, 0]	n/a	FR1	0	R1067P
1253.057	1.6	801368	ORIENT	n/a	n/a	n/a	-999	11	[0, 0, 0]	n/a	FR1	0	R1067P
1255.441	1.6	802560	WORD	n/a	wordpools/wordpool_EN.txt	BAT	1	11	[0, 0, 0]	n/a	FR1	0	R1067P
1257.908	1.6	803794	WORD	n/a	wordpools/wordpool_EN.txt	FLEA	2	11	[0, 0, 0]	n/a	FR1	0	R1067P
1260.391	1.6	805035	WORD	n/a	wordpools/wordpool_EN.txt	NEST	3	11	[0, 0, 0]	n/a	FR1	0	R1067P
1262.774	1.6	806226	WORD	n/a	wordpools/wordpool_EN.txt	WHALE	4	11	[0, 0, 0]	n/a	FR1	0	R1067P
1265.359	1.6	807519	WORD	n/a	wordpools/wordpool_EN.txt	HORN	5	11	[0, 0, 0]	n/a	FR1	0	R1067P
1267.86	1.6	808769	WORD	n/a	wordpools/wordpool_EN.txt	PIG	6	11	[0, 0, 0]	n/a	FR1	0	R1067P
1270.36	1.6	810019	WORD	n/a	wordpools/wordpool_EN.txt	ANT	7	11	[0, 0, 0]	n/a	FR1	0	R1067P
1272.826	1.6	811252	WORD	n/a	wordpools/wordpool_EN.txt	SNAIL	8	11	[0, 0, 0]	n/a	FR1	0	R1067P
1275.278	1.6	812478	WORD	n/a	wordpools/wordpool_EN.txt	TAIL	9	11	[0, 0, 0]	n/a	FR1	0	R1067P
1277.728	1.6	813703	WORD	n/a	wordpools/wordpool_EN.txt	WORM	10	11	[0, 0, 0]	n/a	FR1	0	R1067P
1280.195	1.6	814936	WORD	n/a	wordpools/wordpool_EN.txt	BALL	11	11	[0, 0, 0]	n/a	FR1	0	R1067P
1282.729	1.6	816203	WORD	n/a	wordpools/wordpool_EN.txt	BEE	12	11	[0, 0, 0]	n/a	FR1	0	R1067P
1284.346	0.001	817012	DISTRACT_START	n/a	n/a	n/a	-999	11	[0, 0, 0]	n/a	FR1	0	R1067P
1284.347	0.016	817012	START	n/a	n/a	n/a	-999	11	[-999, -999, -999]	n/a	FR1	0	R1067P
1284.363	3.817	817020	PROB	3.782	n/a	n/a	-999	11	[6, 4, 2]	12.0	FR1	0	R1067P
1288.18	3.184	818929	PROB	3.149	n/a	n/a	-999	11	[2, 1, 3]	6.0	FR1	0	R1067P
1291.364	4.317	820521	PROB	4.285	n/a	n/a	-999	11	[3, 7, 4]	14.0	FR1	0	R1067P
1295.681	5.852	822679	PROB	5.824	n/a	n/a	-999	11	[1, 4, 1]	6.0	FR1	0	R1067P
1301.533	4.444	825605	PROB	4.444	n/a	n/a	-999	11	[8, 5, 2]	15.0	FR1	0	R1067P
1305.977	0.006	827827	STOP	n/a	n/a	n/a	-999	11	[-999, -999, -999]	n/a	FR1	0	R1067P
1305.983	1.218	827830	DISTRACT_END	n/a	n/a	n/a	-999	11	[0, 0, 0]	n/a	FR1	0	R1067P
1307.201	0.758	828439	REC_START	n/a	n/a	n/a	-999	11	[0, 0, 0]	n/a	FR1	0	R1067P
1307.959	1.223	828818	REC_WORD_VV	0.758	n/a	<>	-999	11	[0, 0, 0]	n/a	FR1	0	R1067P
1309.182	1.565	829429	REC_WORD_VV	1.981	n/a	<>	-999	11	[0, 0, 0]	n/a	FR1	0	R1067P
1310.747	2.783	830212	REC_WORD	3.546	n/a	ANT	-999	11	[0, 0, 0]	n/a	FR1	0	R1067P
1313.53	0.463	831603	REC_WORD_VV	6.329	n/a	<>	-999	11	[0, 0, 0]	n/a	FR1	0	R1067P
1313.993	0.592	831835	REC_WORD	6.792	n/a	FLEA	-999	11	[0, 0, 0]	n/a	FR1	0	R1067P
1314.585	1.529	832131	REC_WORD	7.384	n/a	SNAIL	-999	11	[0, 0, 0]	n/a	FR1	0	R1067P
1316.114	0.185	832895	REC_WORD_VV	8.913	n/a	<>	-999	11	[0, 0, 0]	n/a	FR1	0	R1067P
1316.299	3.17	832988	REC_WORD	9.098	n/a	TAIL	-999	11	[0, 0, 0]	n/a	FR1	0	R1067P
1319.469	5.283	834573	REC_WORD	12.268	n/a	BAT	-999	11	[0, 0, 0]	n/a	FR1	0	R1067P
1324.752	0.691	837214	REC_WORD	17.551	n/a	SNAIL	-999	11	[0, 0, 0]	n/a	FR1	0	R1067P
1325.443	0.78	837559	REC_WORD	18.242	n/a	TAIL	-999	11	[0, 0, 0]	n/a	FR1	0	R1067P
1326.223	3.141	837949	REC_WORD	19.022	n/a	BAT	-999	11	[0, 0, 0]	n/a	FR1	0	R1067P
1329.364	3.461	839520	REC_WORD	22.163	n/a	FLEA	-999	11	[0, 0, 0]	n/a	FR1	0	R1067P
1332.825	0.27	841250	REC_WORD	25.624	n/a	BUG	-999	11	[0, 0, 0]	n/a	FR1	0	R1067P
1333.095	4.118	841385	REC_WORD	25.894	n/a	FLEA	-999	11	[0, 0, 0]	n/a	FR1	0	R1067P
1337.213	4.76	843444	REC_END	n/a	n/a	n/a	-999	11	[0, 0, 0]	n/a	FR1	0	R1067P
1341.973	10.0	845824	COUNTDOWN_START	n/a	n/a	n/a	-999	12	[0, 0, 0]	n/a	FR1	0	R1067P
1341.974	10.427	845824	TRIAL	n/a	n/a	n/a	-999	12	[0, 0, 0]	n/a	FR1	0	R1067P
1352.401	0.008	851038	COUNTDOWN_END	n/a	n/a	n/a	-999	12	[0, 0, 0]	n/a	FR1	0	R1067P
1352.409	1.6	851042	ORIENT	n/a	n/a	n/a	-999	12	[0, 0, 0]	n/a	FR1	0	R1067P
1354.876	1.6	852275	WORD	n/a	wordpools/wordpool_EN.txt	TOE	1	12	[0, 0, 0]	n/a	FR1	0	R1067P
1357.46	1.6	853567	WORD	n/a	wordpools/wordpool_EN.txt	CHIN	2	12	[0, 0, 0]	n/a	FR1	0	R1067P
1360.01	1.6	854842	WORD	n/a	wordpools/wordpool_EN.txt	WING	3	12	[0, 0, 0]	n/a	FR1	0	R1067P
1362.627	1.6	856150	WORD	n/a	wordpools/wordpool_EN.txt	GLOVE	4	12	[0, 0, 0]	n/a	FR1	0	R1067P
1365.094	1.6	857384	WORD	n/a	wordpools/wordpool_EN.txt	NOSE	5	12	[0, 0, 0]	n/a	FR1	0	R1067P
1367.578	1.6	858626	WORD	n/a	wordpools/wordpool_EN.txt	CAT	6	12	[0, 0, 0]	n/a	FR1	0	R1067P
1370.062	1.6	859868	WORD	n/a	wordpools/wordpool_EN.txt	FUR	7	12	[0, 0, 0]	n/a	FR1	0	R1067P
1372.496	1.6	861085	WORD	n/a	wordpools/wordpool_EN.txt	OAR	8	12	[0, 0, 0]	n/a	FR1	0	R1067P
1374.896	1.6	862285	WORD	n/a	wordpools/wordpool_EN.txt	TREE	9	12	[0, 0, 0]	n/a	FR1	0	R1067P
1377.447	1.6	863560	WORD	n/a	wordpools/wordpool_EN.txt	SHIELD	10	12	[0, 0, 0]	n/a	FR1	0	R1067P
1379.897	1.6	864785	WORD	n/a	wordpools/wordpool_EN.txt	ROPE	11	12	[0, 0, 0]	n/a	FR1	0	R1067P
1382.331	1.6	866002	WORD	n/a	wordpools/wordpool_EN.txt	BLOOM	12	12	[0, 0, 0]	n/a	FR1	0	R1067P
1383.948	0.001	866810	DISTRACT_START	n/a	n/a	n/a	-999	12	[0, 0, 0]	n/a	FR1	0	R1067P
1383.949	0.016	866811	START	n/a	n/a	n/a	-999	12	[-999, -999, -999]	n/a	FR1	0	R1067P
1383.965	3.4	866819	PROB	3.364	n/a	n/a	-999	12	[1, 1, 1]	3.0	FR1	0	R1067P
1387.365	4.534	868519	PROB	4.5	n/a	n/a	-999	12	[8, 3, 8]	19.0	FR1	0	R1067P
1391.899	4.018	870786	PROB	3.982	n/a	n/a	-999	12	[8, 2, 2]	12.0	FR1	0	R1067P
1395.917	3.684	872795	PROB	3.652	n/a	n/a	-999	12	[3, 5, 6]	14.0	FR1	0	R1067P
1399.601	3.551	874637	PROB	3.52	n/a	n/a	-999	12	[5, 2, 3]	10.0	FR1	0	R1067P
1403.152	3.409	876412	PROB	3.409	n/a	n/a	-999	12	[8, 8, 2]	18.0	FR1	0	R1067P
1406.561	0.008	878116	STOP	n/a	n/a	n/a	-999	12	[-999, -999, -999]	n/a	FR1	0	R1067P
1406.569	1.168	878120	DISTRACT_END	n/a	n/a	n/a	-999	12	[0, 0, 0]	n/a	FR1	0	R1067P
1407.737	0.644	878704	REC_START	n/a	n/a	n/a	-999	12	[0, 0, 0]	n/a	FR1	0	R1067P
1408.381	2.653	879026	REC_WORD_VV	0.644	n/a	<>	-999	12	[0, 0, 0]	n/a	FR1	0	R1067P
1411.034	1.0	880353	REC_WORD_VV	3.297	n/a	<>	-999	12	[0, 0, 0]	n/a	FR1	0	R1067P
1412.034	1.0	880853	REC_WORD_VV	4.297	n/a	<>	-999	12	[0, 0, 0]	n/a	FR1	0	R1067P
1413.034	1.134	881353	REC_WORD_VV	5.297	n/a	<>	-999	12	[0, 0, 0]	n/a	FR1	0	R1067P
1414.168	0.698	881920	REC_WORD	6.431	n/a	BLOOM	-999	12	[0, 0, 0]	n/a	FR1	0	R1067P
1414.866	1.0	882269	REC_WORD_VV	7.129	n/a	<>	-999	12	[0, 0, 0]	n/a	FR1	0	R1067P
1415.866	1.0	882769	REC_WORD_VV	8.129	n/a	<>	-999	12	[0, 0, 0]	n/a	FR1	0	R1067P
1416.866	2.926	883269	REC_WORD_VV	9.129	n/a	<>	-999	12	[0, 0, 0]	n/a	FR1	0	R1067P
1419.792	4.789	884732	REC_WORD	12.055	n/a	BAT	-999	12	[0, 0, 0]	n/a	FR1	0	R1067P
1424.581	0.324	887126	REC_WORD_VV	16.844	n/a	<>	-999	12	[0, 0, 0]	n/a	FR1	0	R1067P
1424.905	2.324	887288	REC_WORD	17.168	n/a	NAIL	-999	12	[0, 0, 0]	n/a	FR1	0	R1067P
1427.229	2.167	888450	REC_WORD_VV	19.492	n/a	<>	-999	12	[0, 0, 0]	n/a	FR1	0	R1067P
1429.396	0.102	889533	REC_WORD_VV	21.659	n/a	<>	-999	12	[0, 0, 0]	n/a	FR1	0	R1067P
1429.498	2.869	889584	REC_WORD	21.761	n/a	NAIL	-999	12	[0, 0, 0]	n/a	FR1	0	R1067P
1432.367	0.521	891019	REC_WORD_VV	24.63	n/a	<>	-999	12	[0, 0, 0]	n/a	FR1	0	R1067P
1432.888	4.644	891279	REC_WORD	25.151	n/a	NAIL	-999	12	[0, 0, 0]	n/a	FR1	0	R1067P
1437.532	0.217	893601	REC_WORD_VV	29.795	n/a	<>	-999	12	[0, 0, 0]	n/a	FR1	0	R1067P
1437.749	10.327	893710	REC_END	n/a	n/a	n/a	-999	12	[0, 0, 0]	n/a	FR1	0	R1067P
1448.076	10.0	898873	COUNTDOWN_START	n/a	n/a	n/a	-999	13	[0, 0, 0]	n/a	FR1	0	R1067P
1448.077	10.427	898873	TRIAL	n/a	n/a	n/a	-999	13	[0, 0, 0]	n/a	FR1	0	R1067P
1458.504	0.008	904087	COUNTDOWN_END	n/a	n/a	n/a	-999	13	[0, 0, 0]	n/a	FR1	0	R1067P
1458.512	1.6	904091	ORIENT	n/a	n/a	n/a	-999	13	[0, 0, 0]	n/a	FR1	0	R1067P
1461.012	1.6	905340	WORD	n/a	wordpools/wordpool_EN.txt	JUICE	1	13	[0, 0, 0]	n/a	FR1	0	R1067P
1463.546	1.6	906607	WORD	n/a	wordpools/wordpool_EN.txt	CORN	2	13	[0, 0, 0]	n/a	FR1	0	R1067P
1466.147	1.6	907908	WORD	n/a	wordpools/wordpool_EN.txt	CAGE	3	13	[0, 0, 0]	n/a	FR1	0	R1067P
1468.73	1.6	909199	WORD	n/a	wordpools/wordpool_EN.txt	MUG	4	13	[0, 0, 0]	n/a	FR1	0	R1067P
1471.198	1.6	910433	WORD	n/a	wordpools/wordpool_EN.txt	HORSE	5	13	[0, 0, 0]	n/a	FR1	0	R1067P
1473.648	1.6	911658	WORD	n/a	wordpools/wordpool_EN.txt	ARM	6	13	[0, 0, 0]	n/a	FR1	0	R1067P
1476.082	1.6	912875	WORD	n/a	wordpools/wordpool_EN.txt	STEAK	7	13	[0, 0, 0]	n/a	FR1	0	R1067P
1478.499	1.6	914084	WORD	n/a	wordpools/wordpool_EN.txt	TOAST	8	13	[0, 0, 0]	n/a	FR1	0	R1067P
1481.049	1.6	915358	WORD	n/a	wordpools/wordpool_EN.txt	CAVE	9	13	[0, 0, 0]	n/a	FR1	0	R1067P
1483.6	1.6	916634	WORD	n/a	wordpools/wordpool_EN.txt	GLASS	10	13	[0, 0, 0]	n/a	FR1	0	R1067P
1486.15	1.6	917909	WORD	n/a	wordpools/wordpool_EN.txt	HOOF	11	13	[0, 0, 0]	n/a	FR1	0	R1067P
1488.767	1.6	919217	WORD	n/a	wordpools/wordpool_EN.txt	PLATE	12	13	[0, 0, 0]	n/a	FR1	0	R1067P
1490.384	0.001	920026	DISTRACT_START	n/a	n/a	n/a	-999	13	[0, 0, 0]	n/a	FR1	0	R1067P
1490.385	0.016	920026	START	n/a	n/a	n/a	-999	13	[-999, -999, -999]	n/a	FR1	0	R1067P
1490.401	4.468	920034	PROB	4.447	n/a	n/a	-999	13	[4, 4, 1]	9.0	FR1	0	R1067P
1494.869	4.184	922268	PROB	4.156	n/a	n/a	-999	13	[8, 7, 6]	21.0	FR1	0	R1067P
1499.053	3.017	924360	PROB	2.988	n/a	n/a	-999	13	[3, 1, 5]	9.0	FR1	0	R1067P
1502.07	4.351	925868	PROB	4.331	n/a	n/a	-999	13	[9, 8, 5]	22.0	FR1	0	R1067P
1506.421	3.517	928044	PROB	3.492	n/a	n/a	-999	13	[9, 1, 8]	18.0	FR1	0	R1067P
1509.938	3.439	929802	PROB	3.439	n/a	n/a	-999	13	[8, 3, 8]	19.0	FR1	0	R1067P
1513.377	0.012	931522	STOP	n/a	n/a	n/a	-999	13	[-999, -999, -999]	n/a	FR1	0	R1067P
1513.389	1.034	931528	DISTRACT_END	n/a	n/a	n/a	-999	13	[0, 0, 0]	n/a	FR1	0	R1067P
1514.423	0.623	932045	REC_START	n/a	n/a	n/a	-999	13	[0, 0, 0]	n/a	FR1	0	R1067P
1515.046	1.0	932356	REC_WORD_VV	0.623	n/a	<>	-999	13	[0, 0, 0]	n/a	FR1	0	R1067P
1516.046	1.0	932856	REC_WORD_VV	1.623	n/a	<>	-999	13	[0, 0, 0]	n/a	FR1	0	R1067P
1517.046	1.0	933356	REC_WORD_VV	2.623	n/a	<>	-999	13	[0, 0, 0]	n/a	FR1	0	R1067P
1518.046	1.0	933856	REC_WORD_VV	3.623	n/a	<>	-999	13	[0, 0, 0]	n/a	FR1	0	R1067P
1519.046	1.56	934356	REC_WORD_VV	4.623	n/a	<>	-999	13	[0, 0, 0]	n/a	FR1	0	R1067P
1520.606	1.0	935136	REC_WORD_VV	6.183	n/a	<>	-999	13	[0, 0, 0]	n/a	FR1	0	R1067P
1521.606	2.692	935636	REC_WORD_VV	7.183	n/a	<>	-999	13	[0, 0, 0]	n/a	FR1	0	R1067P
1524.298	3.653	936982	REC_WORD_VV	9.875	n/a	<>	-999	13	[0, 0, 0]	n/a	FR1	0	R1067P
1527.951	1.663	938808	REC_WORD_VV	13.528	n/a	<>	-999	13	[0, 0, 0]	n/a	FR1	0	R1067P
1529.614	1.0	939640	REC_WORD_VV	15.191	n/a	<>	-999	13	[0, 0, 0]	n/a	FR1	0	R1067P
1530.614	1.0	940140	REC_WORD_VV	16.191	n/a	<>	-999	13	[0, 0, 0]	n/a	FR1	0	R1067P
1531.614	1.686	940640	REC_WORD_VV	17.191	n/a	<>	-999	13	[0, 0, 0]	n/a	FR1	0	R1067P
1533.3	5.395	941483	REC_WORD_VV	18.877	n/a	<>	-999	13	[0, 0, 0]	n/a	FR1	0	R1067P
1538.695	2.14	944180	REC_WORD_VV	24.272	n/a	<>	-999	13	[0, 0, 0]	n/a	FR1	0	R1067P
1540.835	1.0	945250	REC_WORD_VV	26.412	n/a	<>	-999	13	[0, 0, 0]	n/a	FR1	0	R1067P
1541.835	1.0	945750	REC_WORD_VV	27.412	n/a	<>	-999	13	[0, 0, 0]	n/a	FR1	0	R1067P
1542.835	1.0	946250	REC_WORD_VV	28.412	n/a	<>	-999	13	[0, 0, 0]	n/a	FR1	0	R1067P
1543.835	0.601	946750	REC_WORD_VV	29.412	n/a	<>	-999	13	[0, 0, 0]	n/a	FR1	0	R1067P
1544.436	3.076	947050	REC_END	n/a	n/a	n/a	-999	13	[0, 0, 0]	n/a	FR1	0	R1067P
1547.512	10.0	948588	COUNTDOWN_START	n/a	n/a	n/a	-999	14	[0, 0, 0]	n/a	FR1	0	R1067P
1547.512	10.428	948588	TRIAL	n/a	n/a	n/a	-999	14	[0, 0, 0]	n/a	FR1	0	R1067P
1557.94	0.007	953802	COUNTDOWN_END	n/a	n/a	n/a	-999	14	[0, 0, 0]	n/a	FR1	0	R1067P
1557.947	1.6	953806	ORIENT	n/a	n/a	n/a	-999	14	[0, 0, 0]	n/a	FR1	0	R1067P
1560.564	1.6	955114	WORD	n/a	wordpools/wordpool_EN.txt	FOAM	1	14	[0, 0, 0]	n/a	FR1	0	R1067P
1562.965	1.6	956314	WORD	n/a	wordpools/wordpool_EN.txt	PEARL	2	14	[0, 0, 0]	n/a	FR1	0	R1067P
1565.532	1.6	957598	WORD	n/a	wordpools/wordpool_EN.txt	PEACH	3	14	[0, 0, 0]	n/a	FR1	0	R1067P
1568.099	1.6	958881	WORD	n/a	wordpools/wordpool_EN.txt	BEAN	4	14	[0, 0, 0]	n/a	FR1	0	R1067P
1570.55	1.6	960107	WORD	n/a	wordpools/wordpool_EN.txt	JAR	5	14	[0, 0, 0]	n/a	FR1	0	R1067P
1573.15	1.6	961407	WORD	n/a	wordpools/wordpool_EN.txt	DESK	6	14	[0, 0, 0]	n/a	FR1	0	R1067P
1575.651	1.6	962657	WORD	n/a	wordpools/wordpool_EN.txt	SLIME	7	14	[0, 0, 0]	n/a	FR1	0	R1067P
1578.234	1.6	963949	WORD	n/a	wordpools/wordpool_EN.txt	CUP	8	14	[0, 0, 0]	n/a	FR1	0	R1067P
1580.767	1.6	965215	WORD	n/a	wordpools/wordpool_EN.txt	HOOK	9	14	[0, 0, 0]	n/a	FR1	0	R1067P
1583.335	1.6	966499	WORD	n/a	wordpools/wordpool_EN.txt	SOUP	10	14	[0, 0, 0]	n/a	FR1	0	R1067P
1585.752	1.6	967707	WORD	n/a	wordpools/wordpool_EN.txt	STOOL	11	14	[0, 0, 0]	n/a	FR1	0	R1067P
1588.32	1.6	968991	WORD	n/a	wordpools/wordpool_EN.txt	FRUIT	12	14	[0, 0, 0]	n/a	FR1	0	R1067P
1589.937	0.0	969800	DISTRACT_START	n/a	n/a	n/a	-999	14	[0, 0, 0]	n/a	FR1	0	R1067P
1589.937	0.016	969800	START	n/a	n/a	n/a	-999	14	[-999, -999, -999]	n/a	FR1	0	R1067P
1589.953	8.818	969808	PROB	8.784	n/a	n/a	-999	14	[8, 4, 5]	17.0	FR1	0	R1067P
1598.771	5.602	974217	PROB	5.581	n/a	n/a	-999	14	[7, 8, 5]	20.0	FR1	0	R1067P
1604.373	3.133	977017	PROB	3.108	n/a	n/a	-999	14	[5, 2, 2]	9.0	FR1	0	R1067P
1607.506	3.527	978584	PROB	3.527	n/a	n/a	-999	14	[6, 1, 5]	12.0	FR1	0	R1067P
1611.033	0.007	980347	STOP	n/a	n/a	n/a	-999	14	[-999, -999, -999]	n/a	FR1	0	R1067P
1611.04	1.101	980351	DISTRACT_END	n/a	n/a	n/a	-999	14	[0, 0, 0]	n/a	FR1	0	R1067P
1612.141	0.493	980901	REC_START	n/a	n/a	n/a	-999	14	[0, 0, 0]	n/a	FR1	0	R1067P
1612.634	2.17	981148	REC_WORD_VV	0.493	n/a	<>	-999	14	[0, 0, 0]	n/a	FR1	0	R1067P
1614.804	0.247	982233	REC_WORD_VV	2.663	n/a	<>	-999	14	[0, 0, 0]	n/a	FR1	0	R1067P
1615.051	2.084	982356	REC_WORD	2.91	n/a	STOOL	-999	14	[0, 0, 0]	n/a	FR1	0	R1067P
1617.135	0.61	983398	REC_WORD_VV	4.994	n/a	<>	-999	14	[0, 0, 0]	n/a	FR1	0	R1067P
1617.745	11.05	983703	REC_WORD	5.604	n/a	CUP	-999	14	[0, 0, 0]	n/a	FR1	0	R1067P
1628.795	4.985	989228	REC_WORD	16.654	n/a	STOOL	-999	14	[0, 0, 0]	n/a	FR1	0	R1067P
1633.78	3.568	991720	REC_WORD_VV	21.639	n/a	<>	-999	14	[0, 0, 0]	n/a	FR1	0	R1067P
1637.348	4.81	993504	REC_WORD_VV	25.207	n/a	<>	-999	14	[0, 0, 0]	n/a	FR1	0	R1067P
1642.158	25.743	995909	REC_END	n/a	n/a	n/a	-999	14	[0, 0, 0]	n/a	FR1	0	R1067P
1667.901	0.0	1008780	TRIAL	n/a	n/a	n/a	-999	15	[0, 0, 0]	n/a	FR1	0	R1067P
1667.901	10.0	1008780	COUNTDOWN_START	n/a	n/a	n/a	-999	15	[0, 0, 0]	n/a	FR1	0	R1067P
175024.85	0.0	-1	SESSION_SKIPPED	n/a	n/a	n/a	-999	15	[0, 0, 0]	n/a	FR1	0	R1067P
