onset	duration	sample	trial_type	response_time	stim_file	item_name	serialpos	list	test	answer	experiment	session	subject
0.0	24.033	-1	SESS_START	n/a	n/a	n/a	-999	-999	[0, 0, 0]	n/a	FR1	0	R1034D
24.033	10.0	-1	COUNTDOWN_START	n/a	n/a	n/a	-999	-999	[0, 0, 0]	n/a	FR1	0	R1034D
34.461	3.758	-1	COUNTDOWN_END	n/a	n/a	n/a	-999	-999	[0, 0, 0]	n/a	FR1	0	R1034D
38.219	1.6	-1	PRACTICE_WORD	n/a	n/a	WATCH	1	-1	[0, 0, 0]	n/a	FR1	0	R1034D
40.736	1.6	-1	PRACTICE_WORD	n/a	n/a	CAMEL	2	-1	[0, 0, 0]	n/a	FR1	0	R1034D
43.203	1.6	-1	PRACTICE_WORD	n/a	n/a	FLOOD	3	-1	[0, 0, 0]	n/a	FR1	0	R1034D
45.787	1.6	-1	PRACTICE_WORD	n/a	n/a	RHINO	4	-1	[0, 0, 0]	n/a	FR1	0	R1034D
48.237	1.6	-1	PRACTICE_WORD	n/a	n/a	WAGON	5	-1	[0, 0, 0]	n/a	FR1	0	R1034D
50.771	1.6	-1	PRACTICE_WORD	n/a	n/a	BEAM	6	-1	[0, 0, 0]	n/a	FR1	0	R1034D
53.238	1.6	-1	PRACTICE_WORD	n/a	n/a	CHEST	7	-1	[0, 0, 0]	n/a	FR1	0	R1034D
55.705	1.6	-1	PRACTICE_WORD	n/a	n/a	COTTON	8	-1	[0, 0, 0]	n/a	FR1	0	R1034D
58.156	1.6	-1	PRACTICE_WORD	n/a	n/a	ATTIC	9	-1	[0, 0, 0]	n/a	FR1	0	R1034D
60.756	1.6	-1	PRACTICE_WORD	n/a	n/a	TONGUE	10	-1	[0, 0, 0]	n/a	FR1	0	R1034D
63.374	1.6	-1	PRACTICE_WORD	n/a	n/a	IRON	11	-1	[0, 0, 0]	n/a	FR1	0	R1034D
65.907	1.6	-1	PRACTICE_WORD	n/a	n/a	RING	12	-1	[0, 0, 0]	n/a	FR1	0	R1034D
67.508	0.001	-1	PRACTICE_DISTRACT_START	n/a	n/a	n/a	-999	-1	[0, 0, 0]	n/a	FR1	0	R1034D
67.509	0.016	-1	START	n/a	n/a	n/a	-999	-1	[-999, -999, -999]	n/a	FR1	0	R1034D
67.525	12.551	-1	PROB	12.527	n/a	n/a	-999	-1	[9, 9, 4]	13.0	FR1	0	R1034D
80.076	21.632	-1	PROB	21.632	n/a	n/a	-999	-1	[1, 3, 8]	12.0	FR1	0	R1034D
101.708	0.006	-1	STOP	n/a	n/a	n/a	-999	-1	[-999, -999, -999]	n/a	FR1	0	R1034D
101.714	0.703	-1	PRACTICE_DISTRACT_END	n/a	n/a	n/a	-999	-1	[0, 0, 0]	n/a	FR1	0	R1034D
102.417	30.514	-1	PRACTICE_REC_START	n/a	n/a	n/a	-999	-1	[0, 0, 0]	n/a	FR1	0	R1034D
132.931	195.224	-1	PRACTICE_REC_END	n/a	n/a	n/a	-999	-1	[0, 0, 0]	n/a	FR1	0	R1034D
328.155	10.0	-1	COUNTDOWN_START	n/a	n/a	n/a	-999	1	[0, 0, 0]	n/a	FR1	0	R1034D
328.155	8369.33	-1	TRIAL	n/a	n/a	n/a	-999	1	[0, 0, 0]	n/a	FR1	0	R1034D
8697.485	28.653	14404	SESS_START	n/a	n/a	n/a	-999	1	[0, 0, 0]	n/a	FR1	0	R1034D
8726.138	0.0	60246	TRIAL	n/a	n/a	n/a	-999	1	[0, 0, 0]	n/a	FR1	0	R1034D
8726.138	10.0	60246	COUNTDOWN_START	n/a	n/a	n/a	-999	1	[0, 0, 0]	n/a	FR1	0	R1034D
8736.566	0.007	76930	COUNTDOWN_END	n/a	n/a	n/a	-999	1	[0, 0, 0]	n/a	FR1	0	R1034D
8736.573	1.6	76941	ORIENT	n/a	n/a	n/a	-999	1	[0, 0, 0]	n/a	FR1	0	R1034D
8738.99	1.6	80808	WORD	n/a	wordpools/wordpool_EN.txt	JUICE	1	1	[0, 0, 0]	n/a	FR1	0	R1034D
8741.424	1.6	84702	WORD	n/a	wordpools/wordpool_EN.txt	SPONGE	2	1	[0, 0, 0]	n/a	FR1	0	R1034D
8744.008	1.6	88836	WORD	n/a	wordpools/wordpool_EN.txt	SOAP	3	1	[0, 0, 0]	n/a	FR1	0	R1034D
8746.642	1.6	93050	WORD	n/a	wordpools/wordpool_EN.txt	FROG	4	1	[0, 0, 0]	n/a	FR1	0	R1034D
8749.059	1.6	96917	WORD	n/a	wordpools/wordpool_EN.txt	ROOM	5	1	[0, 0, 0]	n/a	FR1	0	R1034D
8751.609	1.6	100997	WORD	n/a	wordpools/wordpool_EN.txt	PALM	6	1	[0, 0, 0]	n/a	FR1	0	R1034D
8754.159	1.6	105077	WORD	n/a	wordpools/wordpool_EN.txt	SEA	7	1	[0, 0, 0]	n/a	FR1	0	R1034D
8756.593	1.6	108971	WORD	n/a	wordpools/wordpool_EN.txt	TEETH	8	1	[0, 0, 0]	n/a	FR1	0	R1034D
8759.027	1.6	112865	WORD	n/a	wordpools/wordpool_EN.txt	PLATE	9	1	[0, 0, 0]	n/a	FR1	0	R1034D
8761.411	1.6	116680	WORD	n/a	wordpools/wordpool_EN.txt	TOOTH	10	1	[0, 0, 0]	n/a	FR1	0	R1034D
8763.995	1.6	120814	WORD	n/a	wordpools/wordpool_EN.txt	SNAIL	11	1	[0, 0, 0]	n/a	FR1	0	R1034D
8766.545	1.6	124894	WORD	n/a	wordpools/wordpool_EN.txt	SALT	12	1	[0, 0, 0]	n/a	FR1	0	R1034D
8768.162	0.001	127481	DISTRACT_START	n/a	n/a	n/a	-999	1	[0, 0, 0]	n/a	FR1	0	R1034D
8768.163	0.015	127482	START	n/a	n/a	n/a	-999	1	[-999, -999, -999]	n/a	FR1	0	R1034D
8768.178	25.706	127506	PROB	25.706	n/a	n/a	-999	1	[8, 8, 9]	25.0	FR1	0	R1034D
8793.884	0.016	168634	STOP	n/a	n/a	n/a	-999	1	[-999, -999, -999]	n/a	FR1	0	R1034D
8793.9	1.039	168659	DISTRACT_END	n/a	n/a	n/a	-999	1	[0, 0, 0]	n/a	FR1	0	R1034D
8794.939	1.855	170321	REC_START	n/a	n/a	n/a	-999	1	[0, 0, 0]	n/a	FR1	0	R1034D
8796.794	1.0	173289	REC_WORD_VV	1.855	n/a	<>	-999	1	[0, 0, 0]	n/a	FR1	0	R1034D
8797.794	1.282	174889	REC_WORD_VV	2.855	n/a	<>	-999	1	[0, 0, 0]	n/a	FR1	0	R1034D
8799.076	0.604	176940	REC_WORD	4.137	n/a	JUICE	1	1	[0, 0, 0]	n/a	FR1	0	R1034D
8799.68	4.26	177907	REC_WORD	4.741	n/a	SPONGE	2	1	[0, 0, 0]	n/a	FR1	0	R1034D
8803.94	3.661	184722	REC_WORD_VV	9.001	n/a	<>	-999	1	[0, 0, 0]	n/a	FR1	0	R1034D
8807.601	2.661	190580	REC_WORD_VV	12.662	n/a	<>	-999	1	[0, 0, 0]	n/a	FR1	0	R1034D
8810.262	1.0	194837	REC_WORD_VV	15.323	n/a	<>	-999	1	[0, 0, 0]	n/a	FR1	0	R1034D
8811.262	2.645	196437	REC_WORD_VV	16.323	n/a	<>	-999	1	[0, 0, 0]	n/a	FR1	0	R1034D
8813.907	0.92	200669	REC_WORD	18.968	n/a	PIE	-999	1	[0, 0, 0]	n/a	FR1	0	R1034D
8814.827	1.0	202141	REC_WORD_VV	19.888	n/a	<>	-999	1	[0, 0, 0]	n/a	FR1	0	R1034D
8815.827	2.349	203740	REC_WORD_VV	20.888	n/a	<>	-999	1	[0, 0, 0]	n/a	FR1	0	R1034D
8818.176	1.0	207499	REC_WORD_VV	23.237	n/a	<>	-999	1	[0, 0, 0]	n/a	FR1	0	R1034D
8819.176	1.607	209099	REC_WORD_VV	24.237	n/a	<>	-999	1	[0, 0, 0]	n/a	FR1	0	R1034D
8820.783	1.0	211670	REC_WORD_VV	25.844	n/a	<>	-999	1	[0, 0, 0]	n/a	FR1	0	R1034D
8821.783	1.0	213270	REC_WORD_VV	26.844	n/a	<>	-999	1	[0, 0, 0]	n/a	FR1	0	R1034D
8822.783	2.172	214869	REC_WORD_VV	27.844	n/a	<>	-999	1	[0, 0, 0]	n/a	FR1	0	R1034D
8824.955	8.319	218345	REC_END	n/a	n/a	n/a	-999	1	[0, 0, 0]	n/a	FR1	0	R1034D
8833.274	0.0	231654	TRIAL	n/a	n/a	n/a	-999	2	[0, 0, 0]	n/a	FR1	0	R1034D
8833.274	10.0	231654	COUNTDOWN_START	n/a	n/a	n/a	-999	2	[0, 0, 0]	n/a	FR1	0	R1034D
8843.702	0.007	248338	COUNTDOWN_END	n/a	n/a	n/a	-999	2	[0, 0, 0]	n/a	FR1	0	R1034D
8843.709	1.6	248349	ORIENT	n/a	n/a	n/a	-999	2	[0, 0, 0]	n/a	FR1	0	R1034D
8846.225	1.6	252375	WORD	n/a	wordpools/wordpool_EN.txt	SIGN	1	2	[0, 0, 0]	n/a	FR1	0	R1034D
8848.677	1.6	256298	WORD	n/a	wordpools/wordpool_EN.txt	KEY	2	2	[0, 0, 0]	n/a	FR1	0	R1034D
8851.277	1.6	260457	WORD	n/a	wordpools/wordpool_EN.txt	MOUTH	3	2	[0, 0, 0]	n/a	FR1	0	R1034D
8853.878	1.6	264619	WORD	n/a	wordpools/wordpool_EN.txt	DRUM	4	2	[0, 0, 0]	n/a	FR1	0	R1034D
8856.428	1.6	268699	WORD	n/a	wordpools/wordpool_EN.txt	JAIL	5	2	[0, 0, 0]	n/a	FR1	0	R1034D
8858.979	1.6	272780	WORD	n/a	wordpools/wordpool_EN.txt	SCHOOL	6	2	[0, 0, 0]	n/a	FR1	0	R1034D
8861.463	1.6	276754	WORD	n/a	wordpools/wordpool_EN.txt	JUDGE	7	2	[0, 0, 0]	n/a	FR1	0	R1034D
8864.013	1.6	280834	WORD	n/a	wordpools/wordpool_EN.txt	BLUSH	8	2	[0, 0, 0]	n/a	FR1	0	R1034D
8866.563	1.6	284914	WORD	n/a	wordpools/wordpool_EN.txt	FOOT	9	2	[0, 0, 0]	n/a	FR1	0	R1034D
8869.114	1.6	288995	WORD	n/a	wordpools/wordpool_EN.txt	PASTE	10	2	[0, 0, 0]	n/a	FR1	0	R1034D
8871.731	1.6	293182	WORD	n/a	wordpools/wordpool_EN.txt	INK	11	2	[0, 0, 0]	n/a	FR1	0	R1034D
8874.181	1.6	297102	WORD	n/a	wordpools/wordpool_EN.txt	BOARD	12	2	[0, 0, 0]	n/a	FR1	0	R1034D
8875.798	0.001	299689	DISTRACT_START	n/a	n/a	n/a	-999	2	[0, 0, 0]	n/a	FR1	0	R1034D
8875.799	0.016	299691	START	n/a	n/a	n/a	-999	2	[-999, -999, -999]	n/a	FR1	0	R1034D
8875.815	9.902	299716	PROB	9.877	n/a	n/a	-999	2	[3, 6, 7]	16.0	FR1	0	R1034D
8885.717	9.918	315558	PROB	9.895	n/a	n/a	-999	2	[2, 6, 2]	16.0	FR1	0	R1034D
8895.635	20.649	331426	PROB	20.649	n/a	n/a	-999	2	[2, 7, 8]	17.0	FR1	0	R1034D
8916.284	0.005	364463	STOP	n/a	n/a	n/a	-999	2	[-999, -999, -999]	n/a	FR1	0	R1034D
8916.289	1.052	364471	DISTRACT_END	n/a	n/a	n/a	-999	2	[0, 0, 0]	n/a	FR1	0	R1034D
8917.341	30.0	366154	REC_START	n/a	n/a	n/a	-999	2	[0, 0, 0]	n/a	FR1	0	R1034D
8947.341	0.009	414152	REC_WORD_VV	30.0	n/a	<>	-999	2	[0, 0, 0]	n/a	FR1	0	R1034D
8947.35	8.713	414166	REC_END	n/a	n/a	n/a	-999	2	[0, 0, 0]	n/a	FR1	0	R1034D
8956.063	0.0	428106	TRIAL	n/a	n/a	n/a	-999	3	[0, 0, 0]	n/a	FR1	0	R1034D
8956.063	10.0	428106	COUNTDOWN_START	n/a	n/a	n/a	-999	3	[0, 0, 0]	n/a	FR1	0	R1034D
8966.491	0.007	444790	COUNTDOWN_END	n/a	n/a	n/a	-999	3	[0, 0, 0]	n/a	FR1	0	R1034D
8966.498	1.6	444801	ORIENT	n/a	n/a	n/a	-999	3	[0, 0, 0]	n/a	FR1	0	R1034D
8969.032	1.6	448855	WORD	n/a	wordpools/wordpool_EN.txt	SKI	1	3	[0, 0, 0]	n/a	FR1	0	R1034D
8971.599	1.6	452962	WORD	n/a	wordpools/wordpool_EN.txt	SHRIMP	2	3	[0, 0, 0]	n/a	FR1	0	R1034D
8974.083	1.6	456936	WORD	n/a	wordpools/wordpool_EN.txt	PLANE	3	3	[0, 0, 0]	n/a	FR1	0	R1034D
8976.7	1.6	461123	WORD	n/a	wordpools/wordpool_EN.txt	DART	4	3	[0, 0, 0]	n/a	FR1	0	R1034D
8979.134	1.6	465018	WORD	n/a	wordpools/wordpool_EN.txt	CLAY	5	3	[0, 0, 0]	n/a	FR1	0	R1034D
8981.568	1.6	468912	WORD	n/a	wordpools/wordpool_EN.txt	CLOUD	6	3	[0, 0, 0]	n/a	FR1	0	R1034D
8983.952	1.6	472726	WORD	n/a	wordpools/wordpool_EN.txt	BALL	7	3	[0, 0, 0]	n/a	FR1	0	R1034D
8986.569	1.6	476913	WORD	n/a	wordpools/wordpool_EN.txt	BOMB	8	3	[0, 0, 0]	n/a	FR1	0	R1034D
8988.986	1.6	480780	WORD	n/a	wordpools/wordpool_EN.txt	MOON	9	3	[0, 0, 0]	n/a	FR1	0	R1034D
8991.603	1.6	484967	WORD	n/a	wordpools/wordpool_EN.txt	WHEEL	10	3	[0, 0, 0]	n/a	FR1	0	R1034D
8994.12	1.6	488994	WORD	n/a	wordpools/wordpool_EN.txt	FILM	11	3	[0, 0, 0]	n/a	FR1	0	R1034D
8996.537	1.6	492861	WORD	n/a	wordpools/wordpool_EN.txt	BAT	12	3	[0, 0, 0]	n/a	FR1	0	R1034D
8998.154	0.001	495448	DISTRACT_START	n/a	n/a	n/a	-999	3	[0, 0, 0]	n/a	FR1	0	R1034D
8998.155	0.015	495450	START	n/a	n/a	n/a	-999	3	[-999, -999, -999]	n/a	FR1	0	R1034D
8998.17	9.051	495474	PROB	9.016	n/a	n/a	-999	3	[3, 8, 2]	13.0	FR1	0	R1034D
9007.221	4.652	509954	PROB	4.623	n/a	n/a	-999	3	[6, 6, 3]	13.0	FR1	0	R1034D
9011.873	6.787	517397	PROB	6.787	n/a	n/a	-999	3	[2, 5, 5]	13.0	FR1	0	R1034D
9018.66	0.014	528256	STOP	n/a	n/a	n/a	-999	3	[-999, -999, -999]	n/a	FR1	0	R1034D
9018.674	1.158	528278	DISTRACT_END	n/a	n/a	n/a	-999	3	[0, 0, 0]	n/a	FR1	0	R1034D
9019.832	1.583	530131	REC_START	n/a	n/a	n/a	-999	3	[0, 0, 0]	n/a	FR1	0	R1034D
9021.415	2.803	532664	REC_WORD_VV	1.583	n/a	<>	-999	3	[0, 0, 0]	n/a	FR1	0	R1034D
9024.218	1.0	537148	REC_WORD_VV	4.386	n/a	<>	-999	3	[0, 0, 0]	n/a	FR1	0	R1034D
9025.218	0.414	538748	REC_WORD_VV	5.386	n/a	<>	-999	3	[0, 0, 0]	n/a	FR1	0	R1034D
9025.632	0.498	539410	REC_WORD	5.8	n/a	SKI	1	3	[0, 0, 0]	n/a	FR1	0	R1034D
9026.13	1.156	540207	REC_WORD	6.298	n/a	SHRIMP	2	3	[0, 0, 0]	n/a	FR1	0	R1034D
9027.286	2.303	542057	REC_WORD	7.454	n/a	BALL	7	3	[0, 0, 0]	n/a	FR1	0	R1034D
9029.589	0.605	545741	REC_WORD	9.757	n/a	COTTON	-999	3	[0, 0, 0]	n/a	FR1	0	R1034D
9030.194	1.785	546709	REC_WORD	10.362	n/a	BAT	12	3	[0, 0, 0]	n/a	FR1	0	R1034D
9031.979	4.85	549565	REC_WORD_VV	12.147	n/a	<>	-999	3	[0, 0, 0]	n/a	FR1	0	R1034D
9036.829	2.538	557325	REC_WORD	16.997	n/a	BOMB	8	3	[0, 0, 0]	n/a	FR1	0	R1034D
9039.367	3.016	561385	REC_WORD_VV	19.535	n/a	<>	-999	3	[0, 0, 0]	n/a	FR1	0	R1034D
9042.383	3.614	566211	REC_WORD_VV	22.551	n/a	<>	-999	3	[0, 0, 0]	n/a	FR1	0	R1034D
9045.997	3.839	571993	REC_WORD_VV	26.165	n/a	<>	-999	3	[0, 0, 0]	n/a	FR1	0	R1034D
9049.836	6.029	578135	REC_END	n/a	n/a	n/a	-999	3	[0, 0, 0]	n/a	FR1	0	R1034D
9055.865	0.0	587781	TRIAL	n/a	n/a	n/a	-999	4	[0, 0, 0]	n/a	FR1	0	R1034D
9055.865	10.0	587781	COUNTDOWN_START	n/a	n/a	n/a	-999	4	[0, 0, 0]	n/a	FR1	0	R1034D
9066.293	0.007	604464	COUNTDOWN_END	n/a	n/a	n/a	-999	4	[0, 0, 0]	n/a	FR1	0	R1034D
9066.3	1.6	604476	ORIENT	n/a	n/a	n/a	-999	4	[0, 0, 0]	n/a	FR1	0	R1034D
9068.683	1.6	608288	WORD	n/a	wordpools/wordpool_EN.txt	PIE	1	4	[0, 0, 0]	n/a	FR1	0	R1034D
9071.084	1.6	612130	WORD	n/a	wordpools/wordpool_EN.txt	CUP	2	4	[0, 0, 0]	n/a	FR1	0	R1034D
9073.668	1.6	616264	WORD	n/a	wordpools/wordpool_EN.txt	SEAT	3	4	[0, 0, 0]	n/a	FR1	0	R1034D
9076.085	1.6	620131	WORD	n/a	wordpools/wordpool_EN.txt	SINK	4	4	[0, 0, 0]	n/a	FR1	0	R1034D
9078.535	1.6	624051	WORD	n/a	wordpools/wordpool_EN.txt	SMILE	5	4	[0, 0, 0]	n/a	FR1	0	R1034D
9081.152	1.6	628238	WORD	n/a	wordpools/wordpool_EN.txt	VEST	6	4	[0, 0, 0]	n/a	FR1	0	R1034D
9083.62	1.6	632186	WORD	n/a	wordpools/wordpool_EN.txt	OAR	7	4	[0, 0, 0]	n/a	FR1	0	R1034D
9086.186	1.6	636292	WORD	n/a	wordpools/wordpool_EN.txt	PEACH	8	4	[0, 0, 0]	n/a	FR1	0	R1034D
9088.771	1.6	640427	WORD	n/a	wordpools/wordpool_EN.txt	CAKE	9	4	[0, 0, 0]	n/a	FR1	0	R1034D
9091.203	1.6	644318	WORD	n/a	wordpools/wordpool_EN.txt	SHIELD	10	4	[0, 0, 0]	n/a	FR1	0	R1034D
9093.721	1.6	648347	WORD	n/a	wordpools/wordpool_EN.txt	GLOVE	11	4	[0, 0, 0]	n/a	FR1	0	R1034D
9096.272	1.6	652428	WORD	n/a	wordpools/wordpool_EN.txt	DIME	12	4	[0, 0, 0]	n/a	FR1	0	R1034D
9097.889	0.001	655015	DISTRACT_START	n/a	n/a	n/a	-999	4	[0, 0, 0]	n/a	FR1	0	R1034D
9097.89	0.016	655017	START	n/a	n/a	n/a	-999	4	[-999, -999, -999]	n/a	FR1	0	R1034D
9097.906	9.651	655043	PROB	9.626	n/a	n/a	-999	4	[7, 4, 5]	15.0	FR1	0	R1034D
9107.557	3.068	670483	PROB	3.039	n/a	n/a	-999	4	[4, 3, 3]	16.0	FR1	0	R1034D
9110.625	2.217	675392	PROB	2.187	n/a	n/a	-999	4	[4, 7, 5]	15.0	FR1	0	R1034D
9112.842	21.266	678939	PROB	21.266	n/a	n/a	-999	4	[9, 8, 7]	23.0	FR1	0	R1034D
9134.108	0.004	712963	STOP	n/a	n/a	n/a	-999	4	[-999, -999, -999]	n/a	FR1	0	R1034D
9134.112	1.117	712969	DISTRACT_END	n/a	n/a	n/a	-999	4	[0, 0, 0]	n/a	FR1	0	R1034D
9135.229	7.031	714756	REC_START	n/a	n/a	n/a	-999	4	[0, 0, 0]	n/a	FR1	0	R1034D
9142.26	1.962	726005	REC_WORD_VV	7.031	n/a	<>	-999	4	[0, 0, 0]	n/a	FR1	0	R1034D
9144.222	2.872	729144	REC_WORD_VV	8.993	n/a	<>	-999	4	[0, 0, 0]	n/a	FR1	0	R1034D
9147.094	2.018	733739	REC_WORD	11.865	n/a	DIME	12	4	[0, 0, 0]	n/a	FR1	0	R1034D
9149.112	1.909	736968	REC_WORD	13.883	n/a	BALL	-999	4	[0, 0, 0]	n/a	FR1	0	R1034D
9151.021	1.116	740022	REC_WORD	15.792	n/a	BAT	-999	4	[0, 0, 0]	n/a	FR1	0	R1034D
9152.137	13.102	741807	REC_WORD_VV	16.908	n/a	<>	-999	4	[0, 0, 0]	n/a	FR1	0	R1034D
9165.239	2.229	762770	REC_END	n/a	n/a	n/a	-999	4	[0, 0, 0]	n/a	FR1	0	R1034D
9167.468	0.0	766336	TRIAL	n/a	n/a	n/a	-999	5	[0, 0, 0]	n/a	FR1	0	R1034D
9167.468	10.0	766336	COUNTDOWN_START	n/a	n/a	n/a	-999	5	[0, 0, 0]	n/a	FR1	0	R1034D
9177.896	0.007	783020	COUNTDOWN_END	n/a	n/a	n/a	-999	5	[0, 0, 0]	n/a	FR1	0	R1034D
9177.903	1.6	783031	ORIENT	n/a	n/a	n/a	-999	5	[0, 0, 0]	n/a	FR1	0	R1034D
9180.304	1.6	786872	WORD	n/a	wordpools/wordpool_EN.txt	MAP	1	5	[0, 0, 0]	n/a	FR1	0	R1034D
9182.854	1.6	790952	WORD	n/a	wordpools/wordpool_EN.txt	LAKE	2	5	[0, 0, 0]	n/a	FR1	0	R1034D
9185.271	1.6	794819	WORD	n/a	wordpools/wordpool_EN.txt	SNOW	3	5	[0, 0, 0]	n/a	FR1	0	R1034D
9187.822	1.6	798900	WORD	n/a	wordpools/wordpool_EN.txt	TRAIN	4	5	[0, 0, 0]	n/a	FR1	0	R1034D
9190.254	1.6	802791	WORD	n/a	wordpools/wordpool_EN.txt	SKUNK	5	5	[0, 0, 0]	n/a	FR1	0	R1034D
9192.673	1.6	806662	WORD	n/a	wordpools/wordpool_EN.txt	CAPE	6	5	[0, 0, 0]	n/a	FR1	0	R1034D
9195.256	1.6	810794	WORD	n/a	wordpools/wordpool_EN.txt	ICE	7	5	[0, 0, 0]	n/a	FR1	0	R1034D
9197.707	1.6	814716	WORD	n/a	wordpools/wordpool_EN.txt	ROCK	8	5	[0, 0, 0]	n/a	FR1	0	R1034D
9200.158	1.6	818637	WORD	n/a	wordpools/wordpool_EN.txt	RAIN	9	5	[0, 0, 0]	n/a	FR1	0	R1034D
9202.591	1.6	822530	WORD	n/a	wordpools/wordpool_EN.txt	POLE	10	5	[0, 0, 0]	n/a	FR1	0	R1034D
9205.224	1.6	826742	WORD	n/a	wordpools/wordpool_EN.txt	BAND	11	5	[0, 0, 0]	n/a	FR1	0	R1034D
9207.625	1.6	830583	WORD	n/a	wordpools/wordpool_EN.txt	SLIME	12	5	[0, 0, 0]	n/a	FR1	0	R1034D
9209.241	0.001	833169	DISTRACT_START	n/a	n/a	n/a	-999	5	[0, 0, 0]	n/a	FR1	0	R1034D
9209.242	0.016	833171	START	n/a	n/a	n/a	-999	5	[-999, -999, -999]	n/a	FR1	0	R1034D
9209.258	6.269	833196	PROB	6.242	n/a	n/a	-999	5	[8, 2, 3]	13.0	FR1	0	R1034D
9215.527	9.285	843226	PROB	9.261	n/a	n/a	-999	5	[8, 3, 4]	15.0	FR1	0	R1034D
9224.812	23.464	858081	PROB	23.464	n/a	n/a	-999	5	[8, 1, 8]	27.0	FR1	0	R1034D
9248.276	0.007	895622	STOP	n/a	n/a	n/a	-999	5	[-999, -999, -999]	n/a	FR1	0	R1034D
9248.283	1.118	895633	DISTRACT_END	n/a	n/a	n/a	-999	5	[0, 0, 0]	n/a	FR1	0	R1034D
9249.401	1.079	897421	REC_START	n/a	n/a	n/a	-999	5	[0, 0, 0]	n/a	FR1	0	R1034D
9250.48	1.0	899148	REC_WORD_VV	1.079	n/a	<>	-999	5	[0, 0, 0]	n/a	FR1	0	R1034D
9251.48	1.447	900748	REC_WORD_VV	2.079	n/a	<>	-999	5	[0, 0, 0]	n/a	FR1	0	R1034D
9252.927	0.857	903063	REC_WORD_VV	3.526	n/a	<>	-999	5	[0, 0, 0]	n/a	FR1	0	R1034D
9253.784	0.592	904434	REC_WORD	4.383	n/a	LAKE	2	5	[0, 0, 0]	n/a	FR1	0	R1034D
9254.376	0.761	905381	REC_WORD	4.975	n/a	MAP	1	5	[0, 0, 0]	n/a	FR1	0	R1034D
9255.137	0.933	906599	REC_WORD	5.736	n/a	SNOW	3	5	[0, 0, 0]	n/a	FR1	0	R1034D
9256.07	1.542	908091	REC_WORD	6.669	n/a	RAIN	9	5	[0, 0, 0]	n/a	FR1	0	R1034D
9257.612	2.228	910558	REC_WORD_VV	8.211	n/a	<>	-999	5	[0, 0, 0]	n/a	FR1	0	R1034D
9259.84	2.393	914123	REC_WORD	10.439	n/a	BAND	11	5	[0, 0, 0]	n/a	FR1	0	R1034D
9262.233	1.511	917952	REC_WORD_VV	12.832	n/a	<>	-999	5	[0, 0, 0]	n/a	FR1	0	R1034D
9263.744	15.667	920369	REC_WORD_VV	14.343	n/a	<>	-999	5	[0, 0, 0]	n/a	FR1	0	R1034D
9279.411	2.044	945435	REC_END	n/a	n/a	n/a	-999	5	[0, 0, 0]	n/a	FR1	0	R1034D
9281.455	10.0	948705	COUNTDOWN_START	n/a	n/a	n/a	-999	6	[0, 0, 0]	n/a	FR1	0	R1034D
9281.456	10.427	948707	TRIAL	n/a	n/a	n/a	-999	6	[0, 0, 0]	n/a	FR1	0	R1034D
9291.883	0.008	965389	COUNTDOWN_END	n/a	n/a	n/a	-999	6	[0, 0, 0]	n/a	FR1	0	R1034D
9291.891	1.6	965402	ORIENT	n/a	n/a	n/a	-999	6	[0, 0, 0]	n/a	FR1	0	R1034D
9294.474	1.6	969534	WORD	n/a	wordpools/wordpool_EN.txt	RAT	1	6	[0, 0, 0]	n/a	FR1	0	R1034D
9296.875	1.6	973376	WORD	n/a	wordpools/wordpool_EN.txt	CAT	2	6	[0, 0, 0]	n/a	FR1	0	R1034D
9299.342	1.6	977323	WORD	n/a	wordpools/wordpool_EN.txt	ANT	3	6	[0, 0, 0]	n/a	FR1	0	R1034D
9301.859	1.6	981350	WORD	n/a	wordpools/wordpool_EN.txt	FOOD	4	6	[0, 0, 0]	n/a	FR1	0	R1034D
9304.36	1.6	985351	WORD	n/a	wordpools/wordpool_EN.txt	STORE	5	6	[0, 0, 0]	n/a	FR1	0	R1034D
9306.76	1.6	989191	WORD	n/a	wordpools/wordpool_EN.txt	BANK	6	6	[0, 0, 0]	n/a	FR1	0	R1034D
9309.327	1.6	993298	WORD	n/a	wordpools/wordpool_EN.txt	DUCK	7	6	[0, 0, 0]	n/a	FR1	0	R1034D
9311.711	1.6	997112	WORD	n/a	wordpools/wordpool_EN.txt	PIG	8	6	[0, 0, 0]	n/a	FR1	0	R1034D
9314.162	1.6	1001033	WORD	n/a	wordpools/wordpool_EN.txt	GEESE	9	6	[0, 0, 0]	n/a	FR1	0	R1034D
9316.562	1.6	1004873	WORD	n/a	wordpools/wordpool_EN.txt	WOLF	10	6	[0, 0, 0]	n/a	FR1	0	R1034D
9318.946	1.6	1008687	WORD	n/a	wordpools/wordpool_EN.txt	FLUTE	11	6	[0, 0, 0]	n/a	FR1	0	R1034D
9321.43	1.6	1012662	WORD	n/a	wordpools/wordpool_EN.txt	LAMB	12	6	[0, 0, 0]	n/a	FR1	0	R1034D
9323.047	0.0	1015249	DISTRACT_START	n/a	n/a	n/a	-999	6	[0, 0, 0]	n/a	FR1	0	R1034D
9323.047	0.016	1015249	START	n/a	n/a	n/a	-999	6	[-999, -999, -999]	n/a	FR1	0	R1034D
9323.063	16.086	1015274	PROB	16.053	n/a	n/a	-999	6	[3, 6, 9]	18.0	FR1	0	R1034D
9339.149	15.567	1041011	PROB	15.567	n/a	n/a	-999	6	[3, 9, 8]	21.0	FR1	0	R1034D
9354.716	0.003	1065916	STOP	n/a	n/a	n/a	-999	6	[-999, -999, -999]	n/a	FR1	0	R1034D
9354.719	1.067	1065921	DISTRACT_END	n/a	n/a	n/a	-999	6	[0, 0, 0]	n/a	FR1	0	R1034D
9355.786	12.584	1067628	REC_START	n/a	n/a	n/a	-999	6	[0, 0, 0]	n/a	FR1	0	R1034D
9368.37	2.317	1087762	REC_WORD_VV	12.584	n/a	<>	-999	6	[0, 0, 0]	n/a	FR1	0	R1034D
9370.687	1.0	1091469	REC_WORD_VV	14.901	n/a	<>	-999	6	[0, 0, 0]	n/a	FR1	0	R1034D
9371.687	1.0	1093069	REC_WORD_VV	15.901	n/a	<>	-999	6	[0, 0, 0]	n/a	FR1	0	R1034D
9372.687	2.875	1094668	REC_WORD_VV	16.901	n/a	<>	-999	6	[0, 0, 0]	n/a	FR1	0	R1034D
9375.562	1.0	1099268	REC_WORD_VV	19.776	n/a	<>	-999	6	[0, 0, 0]	n/a	FR1	0	R1034D
9376.562	1.0	1100868	REC_WORD_VV	20.776	n/a	<>	-999	6	[0, 0, 0]	n/a	FR1	0	R1034D
9377.562	6.991	1102468	REC_WORD_VV	21.776	n/a	<>	-999	6	[0, 0, 0]	n/a	FR1	0	R1034D
9384.553	1.247	1113653	REC_WORD_VV	28.767	n/a	<>	-999	6	[0, 0, 0]	n/a	FR1	0	R1034D
9385.8	4.275	1115648	REC_END	n/a	n/a	n/a	-999	6	[0, 0, 0]	n/a	FR1	0	R1034D
9390.075	10.0	1122488	COUNTDOWN_START	n/a	n/a	n/a	-999	7	[0, 0, 0]	n/a	FR1	0	R1034D
9390.076	10.427	1122489	TRIAL	n/a	n/a	n/a	-999	7	[0, 0, 0]	n/a	FR1	0	R1034D
9400.503	0.008	1139172	COUNTDOWN_END	n/a	n/a	n/a	-999	7	[0, 0, 0]	n/a	FR1	0	R1034D
9400.511	1.6	1139184	ORIENT	n/a	n/a	n/a	-999	7	[0, 0, 0]	n/a	FR1	0	R1034D
9403.144	1.6	1143397	WORD	n/a	wordpools/wordpool_EN.txt	PET	1	7	[0, 0, 0]	n/a	FR1	0	R1034D
9405.728	1.6	1147531	WORD	n/a	wordpools/wordpool_EN.txt	HOLE	2	7	[0, 0, 0]	n/a	FR1	0	R1034D
9408.178	1.6	1151451	WORD	n/a	wordpools/wordpool_EN.txt	SLEEVE	3	7	[0, 0, 0]	n/a	FR1	0	R1034D
9410.746	1.6	1155560	WORD	n/a	wordpools/wordpool_EN.txt	CUBE	4	7	[0, 0, 0]	n/a	FR1	0	R1034D
9413.245	1.6	1159558	WORD	n/a	wordpools/wordpool_EN.txt	NAIL	5	7	[0, 0, 0]	n/a	FR1	0	R1034D
9415.713	1.6	1163506	WORD	n/a	wordpools/wordpool_EN.txt	COUCH	6	7	[0, 0, 0]	n/a	FR1	0	R1034D
9418.196	1.6	1167479	WORD	n/a	wordpools/wordpool_EN.txt	BARN	7	7	[0, 0, 0]	n/a	FR1	0	R1034D
9420.748	1.6	1171562	WORD	n/a	wordpools/wordpool_EN.txt	YARD	8	7	[0, 0, 0]	n/a	FR1	0	R1034D
9423.148	1.6	1175402	WORD	n/a	wordpools/wordpool_EN.txt	PIN	9	7	[0, 0, 0]	n/a	FR1	0	R1034D
9425.599	1.6	1179323	WORD	n/a	wordpools/wordpool_EN.txt	WALL	10	7	[0, 0, 0]	n/a	FR1	0	R1034D
9428.032	1.6	1183216	WORD	n/a	wordpools/wordpool_EN.txt	LAWN	11	7	[0, 0, 0]	n/a	FR1	0	R1034D
9430.566	1.6	1187270	WORD	n/a	wordpools/wordpool_EN.txt	TIE	12	7	[0, 0, 0]	n/a	FR1	0	R1034D
9432.182	0.001	1189855	DISTRACT_START	n/a	n/a	n/a	-999	7	[0, 0, 0]	n/a	FR1	0	R1034D
9432.183	0.016	1189857	START	n/a	n/a	n/a	-999	7	[-999, -999, -999]	n/a	FR1	0	R1034D
9432.199	176.525	1189883	PROB	176.525	n/a	n/a	-999	7	[3, 9, 5]	1.0	FR1	0	R1034D
9608.724	0.008	1472307	STOP	n/a	n/a	n/a	-999	7	[-999, -999, -999]	n/a	FR1	0	R1034D
9608.732	1.084	1472320	DISTRACT_END	n/a	n/a	n/a	-999	7	[0, 0, 0]	n/a	FR1	0	R1034D
9609.816	30.011	1474054	REC_START	n/a	n/a	n/a	-999	7	[0, 0, 0]	n/a	FR1	0	R1034D
9639.827	0.004	1522069	REC_WORD_VV	30.011	n/a	<>	-999	7	[0, 0, 0]	n/a	FR1	0	R1034D
9639.831	3.64	1522076	REC_END	n/a	n/a	n/a	-999	7	[0, 0, 0]	n/a	FR1	0	R1034D
9643.471	10.0	1527899	COUNTDOWN_START	n/a	n/a	n/a	-999	8	[0, 0, 0]	n/a	FR1	0	R1034D
9643.472	10.427	1527901	TRIAL	n/a	n/a	n/a	-999	8	[0, 0, 0]	n/a	FR1	0	R1034D
9653.899	0.008	1544583	COUNTDOWN_END	n/a	n/a	n/a	-999	8	[0, 0, 0]	n/a	FR1	0	R1034D
9653.907	1.6	1544596	ORIENT	n/a	n/a	n/a	-999	8	[0, 0, 0]	n/a	FR1	0	R1034D
9656.474	1.6	1548703	WORD	n/a	wordpools/wordpool_EN.txt	FORT	1	8	[0, 0, 0]	n/a	FR1	0	R1034D
9658.958	1.6	1552677	WORD	n/a	wordpools/wordpool_EN.txt	STEM	2	8	[0, 0, 0]	n/a	FR1	0	R1034D
9661.558	1.6	1556837	WORD	n/a	wordpools/wordpool_EN.txt	SWORD	3	8	[0, 0, 0]	n/a	FR1	0	R1034D
9663.975	1.6	1560704	WORD	n/a	wordpools/wordpool_EN.txt	HORSE	4	8	[0, 0, 0]	n/a	FR1	0	R1034D
9666.509	1.6	1564758	WORD	n/a	wordpools/wordpool_EN.txt	SAIL	5	8	[0, 0, 0]	n/a	FR1	0	R1034D
9669.009	1.6	1568758	WORD	n/a	wordpools/wordpool_EN.txt	COIN	6	8	[0, 0, 0]	n/a	FR1	0	R1034D
9671.527	1.6	1572787	WORD	n/a	wordpools/wordpool_EN.txt	ROOT	7	8	[0, 0, 0]	n/a	FR1	0	R1034D
9674.11	1.6	1576919	WORD	n/a	wordpools/wordpool_EN.txt	STAR	8	8	[0, 0, 0]	n/a	FR1	0	R1034D
9676.528	1.6	1580788	WORD	n/a	wordpools/wordpool_EN.txt	LEAF	9	8	[0, 0, 0]	n/a	FR1	0	R1034D
9679.111	1.6	1584920	WORD	n/a	wordpools/wordpool_EN.txt	SHIP	10	8	[0, 0, 0]	n/a	FR1	0	R1034D
9681.545	1.6	1588815	WORD	n/a	wordpools/wordpool_EN.txt	SHELL	11	8	[0, 0, 0]	n/a	FR1	0	R1034D
9684.112	1.6	1592922	WORD	n/a	wordpools/wordpool_EN.txt	APE	12	8	[0, 0, 0]	n/a	FR1	0	R1034D
9685.729	0.001	1595509	DISTRACT_START	n/a	n/a	n/a	-999	8	[0, 0, 0]	n/a	FR1	0	R1034D
9685.73	0.016	1595510	START	n/a	n/a	n/a	-999	8	[-999, -999, -999]	n/a	FR1	0	R1034D
9685.746	11.385	1595536	PROB	11.354	n/a	n/a	-999	8	[7, 9, 1]	18.0	FR1	0	R1034D
9697.131	8.269	1613751	PROB	8.241	n/a	n/a	-999	8	[6, 9, 7]	16.0	FR1	0	R1034D
9705.4	10.228	1626981	PROB	10.228	n/a	n/a	-999	8	[1, 5, 9]	15.0	FR1	0	R1034D
9715.628	0.007	1643344	STOP	n/a	n/a	n/a	-999	8	[-999, -999, -999]	n/a	FR1	0	R1034D
9715.635	1.117	1643356	DISTRACT_END	n/a	n/a	n/a	-999	8	[0, 0, 0]	n/a	FR1	0	R1034D
9716.752	2.634	1645143	REC_START	n/a	n/a	n/a	-999	8	[0, 0, 0]	n/a	FR1	0	R1034D
9719.386	1.0	1649357	REC_WORD_VV	2.634	n/a	<>	-999	8	[0, 0, 0]	n/a	FR1	0	R1034D
9720.386	1.795	1650957	REC_WORD_VV	3.634	n/a	<>	-999	8	[0, 0, 0]	n/a	FR1	0	R1034D
9722.181	2.582	1653829	REC_WORD_VV	5.429	n/a	<>	-999	8	[0, 0, 0]	n/a	FR1	0	R1034D
9724.763	1.0	1657960	REC_WORD_VV	8.011	n/a	<>	-999	8	[0, 0, 0]	n/a	FR1	0	R1034D
9725.763	1.0	1659560	REC_WORD_VV	9.011	n/a	<>	-999	8	[0, 0, 0]	n/a	FR1	0	R1034D
9726.763	3.326	1661159	REC_WORD_VV	10.011	n/a	<>	-999	8	[0, 0, 0]	n/a	FR1	0	R1034D
9730.089	2.549	1666481	REC_WORD_VV	13.337	n/a	<>	-999	8	[0, 0, 0]	n/a	FR1	0	R1034D
9732.638	0.55	1670559	REC_WORD_VV	15.886	n/a	<>	-999	8	[0, 0, 0]	n/a	FR1	0	R1034D
9733.188	0.804	1671439	REC_WORD	16.436	n/a	SAIL	5	8	[0, 0, 0]	n/a	FR1	0	R1034D
9733.992	3.901	1672725	REC_WORD_VV	17.24	n/a	<>	-999	8	[0, 0, 0]	n/a	FR1	0	R1034D
9737.893	5.158	1678967	REC_WORD_VV	21.141	n/a	<>	-999	8	[0, 0, 0]	n/a	FR1	0	R1034D
9743.051	1.738	1687219	REC_WORD_VV	26.299	n/a	<>	-999	8	[0, 0, 0]	n/a	FR1	0	R1034D
9744.789	1.977	1690000	REC_WORD_VV	28.037	n/a	<>	-999	8	[0, 0, 0]	n/a	FR1	0	R1034D
9746.766	15.844	1693163	REC_END	n/a	n/a	n/a	-999	8	[0, 0, 0]	n/a	FR1	0	R1034D
9762.61	10.0	1718512	COUNTDOWN_START	n/a	n/a	n/a	-999	9	[0, 0, 0]	n/a	FR1	0	R1034D
9762.61	10.428	1718512	TRIAL	n/a	n/a	n/a	-999	9	[0, 0, 0]	n/a	FR1	0	R1034D
9773.038	0.007	1735195	COUNTDOWN_END	n/a	n/a	n/a	-999	9	[0, 0, 0]	n/a	FR1	0	R1034D
9773.045	1.6	1735207	ORIENT	n/a	n/a	n/a	-999	9	[0, 0, 0]	n/a	FR1	0	R1034D
9775.579	1.6	1739261	WORD	n/a	wordpools/wordpool_EN.txt	BENCH	1	9	[0, 0, 0]	n/a	FR1	0	R1034D
9778.195	1.6	1743446	WORD	n/a	wordpools/wordpool_EN.txt	CLOCK	2	9	[0, 0, 0]	n/a	FR1	0	R1034D
9780.797	1.6	1747609	WORD	n/a	wordpools/wordpool_EN.txt	TRUCK	3	9	[0, 0, 0]	n/a	FR1	0	R1034D
9783.314	1.6	1751636	WORD	n/a	wordpools/wordpool_EN.txt	DESK	4	9	[0, 0, 0]	n/a	FR1	0	R1034D
9785.831	1.6	1755663	WORD	n/a	wordpools/wordpool_EN.txt	BATH	5	9	[0, 0, 0]	n/a	FR1	0	R1034D
9788.431	1.6	1759823	WORD	n/a	wordpools/wordpool_EN.txt	BAG	6	9	[0, 0, 0]	n/a	FR1	0	R1034D
9790.965	1.6	1763877	WORD	n/a	wordpools/wordpool_EN.txt	SPOON	7	9	[0, 0, 0]	n/a	FR1	0	R1034D
9793.499	1.6	1767931	WORD	n/a	wordpools/wordpool_EN.txt	FUDGE	8	9	[0, 0, 0]	n/a	FR1	0	R1034D
9795.966	1.6	1771878	WORD	n/a	wordpools/wordpool_EN.txt	BOX	9	9	[0, 0, 0]	n/a	FR1	0	R1034D
9798.566	1.6	1776038	WORD	n/a	wordpools/wordpool_EN.txt	MUG	10	9	[0, 0, 0]	n/a	FR1	0	R1034D
9801.15	1.6	1780172	WORD	n/a	wordpools/wordpool_EN.txt	HAND	11	9	[0, 0, 0]	n/a	FR1	0	R1034D
9803.701	1.6	1784254	WORD	n/a	wordpools/wordpool_EN.txt	VAN	12	9	[0, 0, 0]	n/a	FR1	0	R1034D
9805.318	0.001	1786841	DISTRACT_START	n/a	n/a	n/a	-999	9	[0, 0, 0]	n/a	FR1	0	R1034D
9805.319	0.015	1786842	START	n/a	n/a	n/a	-999	9	[-999, -999, -999]	n/a	FR1	0	R1034D
9805.334	11.702	1786866	PROB	11.67	n/a	n/a	-999	9	[5, 7, 7]	19.0	FR1	0	R1034D
9817.036	6.718	1805588	PROB	6.688	n/a	n/a	-999	9	[8, 2, 1]	11.0	FR1	0	R1034D
9823.754	8.138	1816337	PROB	8.138	n/a	n/a	-999	9	[7, 1, 9]	17.0	FR1	0	R1034D
9831.892	0.014	1829357	STOP	n/a	n/a	n/a	-999	9	[-999, -999, -999]	n/a	FR1	0	R1034D
9831.906	1.201	1829379	DISTRACT_END	n/a	n/a	n/a	-999	9	[0, 0, 0]	n/a	FR1	0	R1034D
9833.107	0.882	1831301	REC_START	n/a	n/a	n/a	-999	9	[0, 0, 0]	n/a	FR1	0	R1034D
9833.989	0.389	1832712	REC_WORD_VV	0.882	n/a	<>	-999	9	[0, 0, 0]	n/a	FR1	0	R1034D
9834.378	1.859	1833334	REC_WORD	1.271	n/a	MUG	10	9	[0, 0, 0]	n/a	FR1	0	R1034D
9836.237	0.616	1836308	REC_WORD_VV	3.13	n/a	<>	-999	9	[0, 0, 0]	n/a	FR1	0	R1034D
9836.853	1.908	1837294	REC_WORD	3.746	n/a	FUDGE	8	9	[0, 0, 0]	n/a	FR1	0	R1034D
9838.761	1.098	1840347	REC_WORD_VV	5.654	n/a	<>	-999	9	[0, 0, 0]	n/a	FR1	0	R1034D
9839.859	1.593	1842103	REC_WORD	6.752	n/a	TRUCK	3	9	[0, 0, 0]	n/a	FR1	0	R1034D
9841.452	0.497	1844652	REC_WORD	8.345	n/a	BENCH	1	9	[0, 0, 0]	n/a	FR1	0	R1034D
9841.949	1.118	1845447	REC_WORD	8.842	n/a	CLOCK	2	9	[0, 0, 0]	n/a	FR1	0	R1034D
9843.067	20.049	1847236	REC_WORD_VV	9.96	n/a	<>	-999	9	[0, 0, 0]	n/a	FR1	0	R1034D
9863.116	2.529	1879313	REC_END	n/a	n/a	n/a	-999	9	[0, 0, 0]	n/a	FR1	0	R1034D
9865.645	10.0	1883359	COUNTDOWN_START	n/a	n/a	n/a	-999	10	[0, 0, 0]	n/a	FR1	0	R1034D
9865.646	10.427	1883360	TRIAL	n/a	n/a	n/a	-999	10	[0, 0, 0]	n/a	FR1	0	R1034D
9876.073	0.008	1900043	COUNTDOWN_END	n/a	n/a	n/a	-999	10	[0, 0, 0]	n/a	FR1	0	R1034D
9876.081	1.6	1900055	ORIENT	n/a	n/a	n/a	-999	10	[0, 0, 0]	n/a	FR1	0	R1034D
9878.514	1.6	1903948	WORD	n/a	wordpools/wordpool_EN.txt	CLOWN	1	10	[0, 0, 0]	n/a	FR1	0	R1034D
9881.031	1.6	1907975	WORD	n/a	wordpools/wordpool_EN.txt	BOOT	2	10	[0, 0, 0]	n/a	FR1	0	R1034D
9883.565	1.6	1912029	WORD	n/a	wordpools/wordpool_EN.txt	WORM	3	10	[0, 0, 0]	n/a	FR1	0	R1034D
9886.082	1.6	1916056	WORD	n/a	wordpools/wordpool_EN.txt	DEER	4	10	[0, 0, 0]	n/a	FR1	0	R1034D
9888.566	1.6	1920030	WORD	n/a	wordpools/wordpool_EN.txt	HAWK	5	10	[0, 0, 0]	n/a	FR1	0	R1034D
9891.083	1.6	1924057	WORD	n/a	wordpools/wordpool_EN.txt	CROWN	6	10	[0, 0, 0]	n/a	FR1	0	R1034D
9893.6	1.6	1928084	WORD	n/a	wordpools/wordpool_EN.txt	PIT	7	10	[0, 0, 0]	n/a	FR1	0	R1034D
9896.2	1.6	1932244	WORD	n/a	wordpools/wordpool_EN.txt	FISH	8	10	[0, 0, 0]	n/a	FR1	0	R1034D
9898.635	1.6	1936140	WORD	n/a	wordpools/wordpool_EN.txt	MOUSE	9	10	[0, 0, 0]	n/a	FR1	0	R1034D
9901.234	1.6	1940298	WORD	n/a	wordpools/wordpool_EN.txt	STEAK	10	10	[0, 0, 0]	n/a	FR1	0	R1034D
9903.719	1.6	1944274	WORD	n/a	wordpools/wordpool_EN.txt	TAIL	11	10	[0, 0, 0]	n/a	FR1	0	R1034D
9906.202	1.6	1948246	WORD	n/a	wordpools/wordpool_EN.txt	WORLD	12	10	[0, 0, 0]	n/a	FR1	0	R1034D
9907.82	0.001	1950835	DISTRACT_START	n/a	n/a	n/a	-999	10	[0, 0, 0]	n/a	FR1	0	R1034D
9907.821	0.015	1950837	START	n/a	n/a	n/a	-999	10	[-999, -999, -999]	n/a	FR1	0	R1034D
9907.836	9.252	1950861	PROB	9.232	n/a	n/a	-999	10	[1, 9, 7]	17.0	FR1	0	R1034D
9917.088	6.351	1965663	PROB	6.316	n/a	n/a	-999	10	[4, 2, 3]	8.0	FR1	0	R1034D
9923.439	11.997	1975824	PROB	11.997	n/a	n/a	-999	10	[6, 3, 9]	18.0	FR1	0	R1034D
9935.436	0.005	1995018	STOP	n/a	n/a	n/a	-999	10	[-999, -999, -999]	n/a	FR1	0	R1034D
9935.441	1.051	1995026	DISTRACT_END	n/a	n/a	n/a	-999	10	[0, 0, 0]	n/a	FR1	0	R1034D
9936.492	1.471	1996708	REC_START	n/a	n/a	n/a	-999	10	[0, 0, 0]	n/a	FR1	0	R1034D
9937.963	0.314	1999061	REC_WORD	1.471	n/a	MUG	-999	10	[0, 0, 0]	n/a	FR1	0	R1034D
9938.277	0.669	1999564	REC_WORD	1.785	n/a	FISH	8	10	[0, 0, 0]	n/a	FR1	0	R1034D
9938.946	4.714	2000634	REC_WORD	2.454	n/a	TAIL	11	10	[0, 0, 0]	n/a	FR1	0	R1034D
9943.66	19.379	2008176	REC_WORD_VV	7.168	n/a	<>	-999	10	[0, 0, 0]	n/a	FR1	0	R1034D
9963.039	3.468	2039181	REC_WORD_VV	26.547	n/a	<>	-999	10	[0, 0, 0]	n/a	FR1	0	R1034D
9966.507	4.224	2044729	REC_END	n/a	n/a	n/a	-999	10	[0, 0, 0]	n/a	FR1	0	R1034D
9970.731	0.0	2051487	TRIAL	n/a	n/a	n/a	-999	11	[0, 0, 0]	n/a	FR1	0	R1034D
9970.731	10.0	2051487	COUNTDOWN_START	n/a	n/a	n/a	-999	11	[0, 0, 0]	n/a	FR1	0	R1034D
9981.159	0.007	2068171	COUNTDOWN_END	n/a	n/a	n/a	-999	11	[0, 0, 0]	n/a	FR1	0	R1034D
9981.166	1.6	2068182	ORIENT	n/a	n/a	n/a	-999	11	[0, 0, 0]	n/a	FR1	0	R1034D
9983.767	1.6	2072344	WORD	n/a	wordpools/wordpool_EN.txt	TANK	1	11	[0, 0, 0]	n/a	FR1	0	R1034D
9986.384	1.6	2076531	WORD	n/a	wordpools/wordpool_EN.txt	LIP	2	11	[0, 0, 0]	n/a	FR1	0	R1034D
9988.968	1.6	2080665	WORD	n/a	wordpools/wordpool_EN.txt	HOOF	3	11	[0, 0, 0]	n/a	FR1	0	R1034D
9991.368	1.6	2084505	WORD	n/a	wordpools/wordpool_EN.txt	PARK	4	11	[0, 0, 0]	n/a	FR1	0	R1034D
9993.952	1.6	2088639	WORD	n/a	wordpools/wordpool_EN.txt	STICK	5	11	[0, 0, 0]	n/a	FR1	0	R1034D
9996.486	1.6	2092693	WORD	n/a	wordpools/wordpool_EN.txt	CASH	6	11	[0, 0, 0]	n/a	FR1	0	R1034D
9998.936	1.6	2096613	WORD	n/a	wordpools/wordpool_EN.txt	FUR	7	11	[0, 0, 0]	n/a	FR1	0	R1034D
10001.52	1.6	2100747	WORD	n/a	wordpools/wordpool_EN.txt	CAVE	8	11	[0, 0, 0]	n/a	FR1	0	R1034D
10004.104	1.6	2104881	WORD	n/a	wordpools/wordpool_EN.txt	CALF	9	11	[0, 0, 0]	n/a	FR1	0	R1034D
10006.721	1.6	2109068	WORD	n/a	wordpools/wordpool_EN.txt	ZOO	10	11	[0, 0, 0]	n/a	FR1	0	R1034D
10009.338	1.6	2113255	WORD	n/a	wordpools/wordpool_EN.txt	SPRING	11	11	[0, 0, 0]	n/a	FR1	0	R1034D
10011.955	1.6	2117442	WORD	n/a	wordpools/wordpool_EN.txt	ARM	12	11	[0, 0, 0]	n/a	FR1	0	R1034D
10013.572	0.001	2120029	DISTRACT_START	n/a	n/a	n/a	-999	11	[0, 0, 0]	n/a	FR1	0	R1034D
10013.573	0.016	2120031	START	n/a	n/a	n/a	-999	11	[-999, -999, -999]	n/a	FR1	0	R1034D
10013.589	9.667	2120056	PROB	9.638	n/a	n/a	-999	11	[3, 9, 4]	16.0	FR1	0	R1034D
10023.256	3.569	2135523	PROB	3.54	n/a	n/a	-999	11	[1, 6, 1]	8.0	FR1	0	R1034D
10026.825	6.084	2141233	PROB	6.059	n/a	n/a	-999	11	[8, 9, 2]	19.0	FR1	0	R1034D
10032.909	8.367	2150967	PROB	8.367	n/a	n/a	-999	11	[5, 6, 1]	11.0	FR1	0	R1034D
10041.276	0.018	2164353	STOP	n/a	n/a	n/a	-999	11	[-999, -999, -999]	n/a	FR1	0	R1034D
10041.294	1.201	2164382	DISTRACT_END	n/a	n/a	n/a	-999	11	[0, 0, 0]	n/a	FR1	0	R1034D
10042.495	9.79	2166303	REC_START	n/a	n/a	n/a	-999	11	[0, 0, 0]	n/a	FR1	0	R1034D
10052.285	1.0	2181967	REC_WORD_VV	9.79	n/a	<>	-999	11	[0, 0, 0]	n/a	FR1	0	R1034D
10053.285	1.0	2183567	REC_WORD_VV	10.79	n/a	<>	-999	11	[0, 0, 0]	n/a	FR1	0	R1034D
10054.285	1.0	2185166	REC_WORD_VV	11.79	n/a	<>	-999	11	[0, 0, 0]	n/a	FR1	0	R1034D
10055.285	3.231	2186766	REC_WORD_VV	12.79	n/a	<>	-999	11	[0, 0, 0]	n/a	FR1	0	R1034D
10058.516	1.0	2191936	REC_WORD_VV	16.021	n/a	<>	-999	11	[0, 0, 0]	n/a	FR1	0	R1034D
10059.516	2.209	2193536	REC_WORD_VV	17.021	n/a	<>	-999	11	[0, 0, 0]	n/a	FR1	0	R1034D
10061.725	1.0	2197070	REC_WORD_VV	19.23	n/a	<>	-999	11	[0, 0, 0]	n/a	FR1	0	R1034D
10062.725	1.0	2198670	REC_WORD_VV	20.23	n/a	<>	-999	11	[0, 0, 0]	n/a	FR1	0	R1034D
10063.725	1.0	2200270	REC_WORD_VV	21.23	n/a	<>	-999	11	[0, 0, 0]	n/a	FR1	0	R1034D
10064.725	4.338	2201870	REC_WORD_VV	22.23	n/a	<>	-999	11	[0, 0, 0]	n/a	FR1	0	R1034D
10069.063	3.442	2208810	REC_WORD_VV	26.568	n/a	<>	-999	11	[0, 0, 0]	n/a	FR1	0	R1034D
10072.505	0.0	2214317	REC_END	n/a	n/a	n/a	-999	11	[0, 0, 0]	n/a	FR1	0	R1034D
