onset	duration	sample	trial_type	response_time	stim_file	item_name	serialpos	list	test	answer	experiment	session	subject
0.0	264.949	19451	SESS_START	n/a	n/a	n/a	-999	-999	[0, 0, 0]	n/a	FR1	2	R1060M
264.949	10.0	151925	COUNTDOWN_START	n/a	n/a	n/a	-999	-999	[0, 0, 0]	n/a	FR1	2	R1060M
275.377	3.774	157139	COUNTDOWN_END	n/a	n/a	n/a	-999	-999	[0, 0, 0]	n/a	FR1	2	R1060M
279.151	1.6	159025	PRACTICE_WORD	n/a	n/a	ATTIC	1	-1	[0, 0, 0]	n/a	FR1	2	R1060M
281.585	1.6	160242	PRACTICE_WORD	n/a	n/a	RING	2	-1	[0, 0, 0]	n/a	FR1	2	R1060M
284.019	1.6	161459	PRACTICE_WORD	n/a	n/a	BEAM	3	-1	[0, 0, 0]	n/a	FR1	2	R1060M
286.586	1.6	162743	PRACTICE_WORD	n/a	n/a	COTTON	4	-1	[0, 0, 0]	n/a	FR1	2	R1060M
289.203	1.6	164051	PRACTICE_WORD	n/a	n/a	IRON	5	-1	[0, 0, 0]	n/a	FR1	2	R1060M
291.719	1.6	165309	PRACTICE_WORD	n/a	n/a	TONGUE	6	-1	[0, 0, 0]	n/a	FR1	2	R1060M
294.087	1.6	166493	PRACTICE_WORD	n/a	n/a	CHEST	7	-1	[0, 0, 0]	n/a	FR1	2	R1060M
296.555	1.6	167727	PRACTICE_WORD	n/a	n/a	CAMEL	8	-1	[0, 0, 0]	n/a	FR1	2	R1060M
298.939	1.6	168919	PRACTICE_WORD	n/a	n/a	WAGON	9	-1	[0, 0, 0]	n/a	FR1	2	R1060M
301.322	1.6	170111	PRACTICE_WORD	n/a	n/a	WATCH	10	-1	[0, 0, 0]	n/a	FR1	2	R1060M
303.773	1.6	171336	PRACTICE_WORD	n/a	n/a	FLOOD	11	-1	[0, 0, 0]	n/a	FR1	2	R1060M
306.273	1.6	172586	PRACTICE_WORD	n/a	n/a	RHINO	12	-1	[0, 0, 0]	n/a	FR1	2	R1060M
307.89	0.001	173395	PRACTICE_DISTRACT_START	n/a	n/a	n/a	-999	-1	[0, 0, 0]	n/a	FR1	2	R1060M
307.891	0.016	173395	START	n/a	n/a	n/a	-999	-1	[-999, -999, -999]	n/a	FR1	2	R1060M
307.907	2.816	173403	PROB	2.79	n/a	n/a	-999	-1	[4, 4, 2]	10.0	FR1	2	R1060M
310.723	9.886	174811	PROB	9.855	n/a	n/a	-999	-1	[9, 6, 9]	24.0	FR1	2	R1060M
320.609	2.968	179754	PROB	2.945	n/a	n/a	-999	-1	[6, 5, 1]	12.0	FR1	2	R1060M
323.577	4.713	181238	PROB	4.713	n/a	n/a	-999	-1	[6, 7, 6]	20.0	FR1	2	R1060M
328.29	0.004	183595	STOP	n/a	n/a	n/a	-999	-1	[-999, -999, -999]	n/a	FR1	2	R1060M
328.294	0.602	183597	PRACTICE_DISTRACT_END	n/a	n/a	n/a	-999	-1	[0, 0, 0]	n/a	FR1	2	R1060M
328.896	30.515	183898	PRACTICE_REC_START	n/a	n/a	n/a	-999	-1	[0, 0, 0]	n/a	FR1	2	R1060M
359.411	14.442	199155	PRACTICE_REC_END	n/a	n/a	n/a	-999	-1	[0, 0, 0]	n/a	FR1	2	R1060M
373.853	10.0	206376	COUNTDOWN_START	n/a	n/a	n/a	-999	1	[0, 0, 0]	n/a	FR1	2	R1060M
373.853	10.428	206376	TRIAL	n/a	n/a	n/a	-999	1	[0, 0, 0]	n/a	FR1	2	R1060M
384.281	0.007	211590	COUNTDOWN_END	n/a	n/a	n/a	-999	1	[0, 0, 0]	n/a	FR1	2	R1060M
384.288	1.6	211594	ORIENT	n/a	n/a	n/a	-999	1	[0, 0, 0]	n/a	FR1	2	R1060M
386.738	1.6	212819	WORD	n/a	wordpools/wordpool_EN.txt	TANK	1	1	[0, 0, 0]	n/a	FR1	2	R1060M
389.122	1.6	214010	WORD	n/a	wordpools/wordpool_EN.txt	MAZE	2	1	[0, 0, 0]	n/a	FR1	2	R1060M
391.59	1.6	215244	WORD	n/a	wordpools/wordpool_EN.txt	CAR	3	1	[0, 0, 0]	n/a	FR1	2	R1060M
394.09	1.6	216494	WORD	n/a	wordpools/wordpool_EN.txt	VAN	4	1	[0, 0, 0]	n/a	FR1	2	R1060M
396.491	1.6	217695	WORD	n/a	wordpools/wordpool_EN.txt	SAIL	5	1	[0, 0, 0]	n/a	FR1	2	R1060M
399.108	1.6	219003	WORD	n/a	wordpools/wordpool_EN.txt	BOARD	6	1	[0, 0, 0]	n/a	FR1	2	R1060M
401.592	1.6	220245	WORD	n/a	wordpools/wordpool_EN.txt	SOUP	7	1	[0, 0, 0]	n/a	FR1	2	R1060M
404.209	1.6	221554	WORD	n/a	wordpools/wordpool_EN.txt	TOY	8	1	[0, 0, 0]	n/a	FR1	2	R1060M
406.708	1.6	222803	WORD	n/a	wordpools/wordpool_EN.txt	BRICK	9	1	[0, 0, 0]	n/a	FR1	2	R1060M
409.093	1.6	223996	WORD	n/a	wordpools/wordpool_EN.txt	JAIL	10	1	[0, 0, 0]	n/a	FR1	2	R1060M
411.693	1.6	225296	WORD	n/a	wordpools/wordpool_EN.txt	STORM	11	1	[0, 0, 0]	n/a	FR1	2	R1060M
414.127	1.6	226513	WORD	n/a	wordpools/wordpool_EN.txt	BANK	12	1	[0, 0, 0]	n/a	FR1	2	R1060M
415.743	0.001	227321	DISTRACT_START	n/a	n/a	n/a	-999	1	[0, 0, 0]	n/a	FR1	2	R1060M
415.744	0.017	227321	START	n/a	n/a	n/a	-999	1	[-999, -999, -999]	n/a	FR1	2	R1060M
415.761	3.667	227330	PROB	3.641	n/a	n/a	-999	1	[3, 7, 7]	17.0	FR1	2	R1060M
419.428	2.834	229163	PROB	2.814	n/a	n/a	-999	1	[6, 2, 2]	10.0	FR1	2	R1060M
422.262	3.718	230580	PROB	3.692	n/a	n/a	-999	1	[7, 6, 8]	21.0	FR1	2	R1060M
425.98	2.35	232439	PROB	2.318	n/a	n/a	-999	1	[3, 3, 3]	9.0	FR1	2	R1060M
428.33	2.684	233614	PROB	2.664	n/a	n/a	-999	1	[2, 3, 1]	6.0	FR1	2	R1060M
431.014	3.733	234956	PROB	3.707	n/a	n/a	-999	1	[9, 5, 6]	20.0	FR1	2	R1060M
434.747	3.263	236823	PROB	3.263	n/a	n/a	-999	1	[8, 5, 8]	21.0	FR1	2	R1060M
438.01	0.005	238454	STOP	n/a	n/a	n/a	-999	1	[-999, -999, -999]	n/a	FR1	2	R1060M
438.015	1.151	238457	DISTRACT_END	n/a	n/a	n/a	-999	1	[0, 0, 0]	n/a	FR1	2	R1060M
439.166	1.02	239032	REC_START	n/a	n/a	n/a	-999	1	[0, 0, 0]	n/a	FR1	2	R1060M
440.186	1.458	239542	REC_WORD	1.02	n/a	SOUP	-999	1	[0, 0, 0]	n/a	FR1	2	R1060M
441.644	4.15	240271	REC_WORD	2.478	n/a	TOY	-999	1	[0, 0, 0]	n/a	FR1	2	R1060M
445.794	3.234	242346	REC_WORD	6.628	n/a	SAIL	-999	1	[0, 0, 0]	n/a	FR1	2	R1060M
449.028	7.975	243963	REC_WORD	9.862	n/a	BOY	-999	1	[0, 0, 0]	n/a	FR1	2	R1060M
457.003	12.172	247951	REC_WORD	17.837	n/a	BOAT	-999	1	[0, 0, 0]	n/a	FR1	2	R1060M
469.175	2.546	254037	REC_END	n/a	n/a	n/a	-999	1	[0, 0, 0]	n/a	FR1	2	R1060M
471.721	0.0	255310	TRIAL	n/a	n/a	n/a	-999	2	[0, 0, 0]	n/a	FR1	2	R1060M
471.721	10.0	255310	COUNTDOWN_START	n/a	n/a	n/a	-999	2	[0, 0, 0]	n/a	FR1	2	R1060M
482.149	0.008	260524	COUNTDOWN_END	n/a	n/a	n/a	-999	2	[0, 0, 0]	n/a	FR1	2	R1060M
482.157	1.6	260528	ORIENT	n/a	n/a	n/a	-999	2	[0, 0, 0]	n/a	FR1	2	R1060M
484.574	1.6	261736	WORD	n/a	wordpools/wordpool_EN.txt	HAT	1	2	[0, 0, 0]	n/a	FR1	2	R1060M
487.108	1.6	263003	WORD	n/a	wordpools/wordpool_EN.txt	BATH	2	2	[0, 0, 0]	n/a	FR1	2	R1060M
489.625	1.6	264262	WORD	n/a	wordpools/wordpool_EN.txt	COW	3	2	[0, 0, 0]	n/a	FR1	2	R1060M
492.226	1.6	265562	WORD	n/a	wordpools/wordpool_EN.txt	GATE	4	2	[0, 0, 0]	n/a	FR1	2	R1060M
494.643	1.6	266771	WORD	n/a	wordpools/wordpool_EN.txt	MUD	5	2	[0, 0, 0]	n/a	FR1	2	R1060M
497.093	1.6	267996	WORD	n/a	wordpools/wordpool_EN.txt	DIME	6	2	[0, 0, 0]	n/a	FR1	2	R1060M
499.511	1.6	269204	WORD	n/a	wordpools/wordpool_EN.txt	MOOSE	7	2	[0, 0, 0]	n/a	FR1	2	R1060M
502.111	1.6	270504	WORD	n/a	wordpools/wordpool_EN.txt	SPRING	8	2	[0, 0, 0]	n/a	FR1	2	R1060M
504.511	1.6	271704	WORD	n/a	wordpools/wordpool_EN.txt	FACE	9	2	[0, 0, 0]	n/a	FR1	2	R1060M
506.912	1.6	272905	WORD	n/a	wordpools/wordpool_EN.txt	GOAT	10	2	[0, 0, 0]	n/a	FR1	2	R1060M
509.462	1.6	274180	WORD	n/a	wordpools/wordpool_EN.txt	SINK	11	2	[0, 0, 0]	n/a	FR1	2	R1060M
511.88	1.6	275389	WORD	n/a	wordpools/wordpool_EN.txt	TEA	12	2	[0, 0, 0]	n/a	FR1	2	R1060M
513.497	0.0	276197	DISTRACT_START	n/a	n/a	n/a	-999	2	[0, 0, 0]	n/a	FR1	2	R1060M
513.497	0.016	276197	START	n/a	n/a	n/a	-999	2	[-999, -999, -999]	n/a	FR1	2	R1060M
513.513	3.534	276205	PROB	3.505	n/a	n/a	-999	2	[4, 5, 5]	14.0	FR1	2	R1060M
517.047	2.184	277972	PROB	2.155	n/a	n/a	-999	2	[1, 3, 7]	11.0	FR1	2	R1060M
519.231	3.301	279064	PROB	3.267	n/a	n/a	-999	2	[5, 3, 3]	11.0	FR1	2	R1060M
522.532	3.7	280715	PROB	3.678	n/a	n/a	-999	2	[1, 9, 4]	14.0	FR1	2	R1060M
526.232	2.868	282565	PROB	2.834	n/a	n/a	-999	2	[6, 3, 2]	11.0	FR1	2	R1060M
529.1	2.917	283999	PROB	2.895	n/a	n/a	-999	2	[7, 7, 6]	20.0	FR1	2	R1060M
532.017	2.728	285457	PROB	2.728	n/a	n/a	-999	2	[3, 2, 4]	9.0	FR1	2	R1060M
534.745	0.006	286821	STOP	n/a	n/a	n/a	-999	2	[-999, -999, -999]	n/a	FR1	2	R1060M
534.751	1.217	286824	DISTRACT_END	n/a	n/a	n/a	-999	2	[0, 0, 0]	n/a	FR1	2	R1060M
535.968	0.952	287433	REC_START	n/a	n/a	n/a	-999	2	[0, 0, 0]	n/a	FR1	2	R1060M
536.92	1.273	287909	REC_WORD	0.952	n/a	HAT	-999	2	[0, 0, 0]	n/a	FR1	2	R1060M
538.193	1.696	288545	REC_WORD	2.225	n/a	BATH	-999	2	[0, 0, 0]	n/a	FR1	2	R1060M
539.889	2.71	289393	REC_WORD	3.921	n/a	MOOSE	-999	2	[0, 0, 0]	n/a	FR1	2	R1060M
542.599	2.3	290748	REC_WORD	6.631	n/a	BOY	-999	2	[0, 0, 0]	n/a	FR1	2	R1060M
544.899	7.399	291898	REC_WORD	8.931	n/a	COW	-999	2	[0, 0, 0]	n/a	FR1	2	R1060M
552.298	13.68	295598	REC_WORD	16.33	n/a	TONGUE	-999	2	[0, 0, 0]	n/a	FR1	2	R1060M
565.978	1.912	302438	REC_END	n/a	n/a	n/a	-999	2	[0, 0, 0]	n/a	FR1	2	R1060M
567.89	10.0	303394	COUNTDOWN_START	n/a	n/a	n/a	-999	3	[0, 0, 0]	n/a	FR1	2	R1060M
567.891	10.427	303394	TRIAL	n/a	n/a	n/a	-999	3	[0, 0, 0]	n/a	FR1	2	R1060M
578.318	0.008	308608	COUNTDOWN_END	n/a	n/a	n/a	-999	3	[0, 0, 0]	n/a	FR1	2	R1060M
578.326	1.6	308612	ORIENT	n/a	n/a	n/a	-999	3	[0, 0, 0]	n/a	FR1	2	R1060M
580.893	1.6	309895	WORD	n/a	wordpools/wordpool_EN.txt	LAMP	1	3	[0, 0, 0]	n/a	FR1	2	R1060M
583.293	1.6	311095	WORD	n/a	wordpools/wordpool_EN.txt	BOOT	2	3	[0, 0, 0]	n/a	FR1	2	R1060M
585.861	1.6	312379	WORD	n/a	wordpools/wordpool_EN.txt	FOG	3	3	[0, 0, 0]	n/a	FR1	2	R1060M
588.278	1.6	313588	WORD	n/a	wordpools/wordpool_EN.txt	FLAG	4	3	[0, 0, 0]	n/a	FR1	2	R1060M
590.878	1.6	314888	WORD	n/a	wordpools/wordpool_EN.txt	NAIL	5	3	[0, 0, 0]	n/a	FR1	2	R1060M
593.279	1.6	316088	WORD	n/a	wordpools/wordpool_EN.txt	PARK	6	3	[0, 0, 0]	n/a	FR1	2	R1060M
595.728	1.6	317313	WORD	n/a	wordpools/wordpool_EN.txt	CLOCK	7	3	[0, 0, 0]	n/a	FR1	2	R1060M
598.279	1.6	318588	WORD	n/a	wordpools/wordpool_EN.txt	BED	8	3	[0, 0, 0]	n/a	FR1	2	R1060M
600.78	1.6	319839	WORD	n/a	wordpools/wordpool_EN.txt	SWORD	9	3	[0, 0, 0]	n/a	FR1	2	R1060M
603.214	1.6	321056	WORD	n/a	wordpools/wordpool_EN.txt	BAT	10	3	[0, 0, 0]	n/a	FR1	2	R1060M
605.647	1.6	322272	WORD	n/a	wordpools/wordpool_EN.txt	SKI	11	3	[0, 0, 0]	n/a	FR1	2	R1060M
608.148	1.6	323523	WORD	n/a	wordpools/wordpool_EN.txt	WHALE	12	3	[0, 0, 0]	n/a	FR1	2	R1060M
609.765	0.001	324331	DISTRACT_START	n/a	n/a	n/a	-999	3	[0, 0, 0]	n/a	FR1	2	R1060M
609.766	0.016	324332	START	n/a	n/a	n/a	-999	3	[-999, -999, -999]	n/a	FR1	2	R1060M
609.782	2.617	324340	PROB	2.596	n/a	n/a	-999	3	[2, 3, 7]	12.0	FR1	2	R1060M
612.399	2.684	325648	PROB	2.651	n/a	n/a	-999	3	[6, 8, 1]	15.0	FR1	2	R1060M
615.083	3.35	326990	PROB	3.327	n/a	n/a	-999	3	[4, 7, 6]	17.0	FR1	2	R1060M
618.433	2.068	328665	PROB	2.033	n/a	n/a	-999	3	[1, 2, 3]	6.0	FR1	2	R1060M
620.501	2.283	329699	PROB	2.253	n/a	n/a	-999	3	[5, 3, 1]	9.0	FR1	2	R1060M
622.784	2.317	330840	PROB	2.282	n/a	n/a	-999	3	[4, 6, 2]	12.0	FR1	2	R1060M
625.101	2.734	331999	PROB	2.701	n/a	n/a	-999	3	[9, 6, 1]	16.0	FR1	2	R1060M
627.835	4.415	333366	PROB	4.415	n/a	n/a	-999	3	[8, 5, 6]	19.0	FR1	2	R1060M
632.25	0.019	335573	STOP	n/a	n/a	n/a	-999	3	[-999, -999, -999]	n/a	FR1	2	R1060M
632.269	1.218	335583	DISTRACT_END	n/a	n/a	n/a	-999	3	[0, 0, 0]	n/a	FR1	2	R1060M
633.487	1.258	336192	REC_START	n/a	n/a	n/a	-999	3	[0, 0, 0]	n/a	FR1	2	R1060M
634.745	0.451	336821	REC_WORD_VV	1.258	n/a	<>	-999	3	[0, 0, 0]	n/a	FR1	2	R1060M
635.196	2.814	337046	REC_WORD	1.709	n/a	BED	-999	3	[0, 0, 0]	n/a	FR1	2	R1060M
638.01	1.29	338453	REC_WORD	4.523	n/a	BOARD	-999	3	[0, 0, 0]	n/a	FR1	2	R1060M
639.3	8.215	339098	REC_WORD	5.813	n/a	HAT	-999	3	[0, 0, 0]	n/a	FR1	2	R1060M
647.515	1.444	343206	REC_WORD	14.028	n/a	BOY	-999	3	[0, 0, 0]	n/a	FR1	2	R1060M
648.959	6.616	343928	REC_WORD	15.472	n/a	FOG	-999	3	[0, 0, 0]	n/a	FR1	2	R1060M
655.575	0.982	347236	REC_WORD	22.088	n/a	SKI	-999	3	[0, 0, 0]	n/a	FR1	2	R1060M
656.557	6.939	347727	REC_WORD	23.07	n/a	SAIL	-999	3	[0, 0, 0]	n/a	FR1	2	R1060M
663.496	6.414	351196	REC_END	n/a	n/a	n/a	-999	3	[0, 0, 0]	n/a	FR1	2	R1060M
669.91	0.0	354403	TRIAL	n/a	n/a	n/a	-999	4	[0, 0, 0]	n/a	FR1	2	R1060M
669.91	10.0	354403	COUNTDOWN_START	n/a	n/a	n/a	-999	4	[0, 0, 0]	n/a	FR1	2	R1060M
680.338	0.007	359617	COUNTDOWN_END	n/a	n/a	n/a	-999	4	[0, 0, 0]	n/a	FR1	2	R1060M
680.345	1.6	359621	ORIENT	n/a	n/a	n/a	-999	4	[0, 0, 0]	n/a	FR1	2	R1060M
682.929	1.6	360913	WORD	n/a	wordpools/wordpool_EN.txt	TAIL	1	4	[0, 0, 0]	n/a	FR1	2	R1060M
685.53	1.6	362213	WORD	n/a	wordpools/wordpool_EN.txt	MOUSE	2	4	[0, 0, 0]	n/a	FR1	2	R1060M
688.08	1.6	363488	WORD	n/a	wordpools/wordpool_EN.txt	ROPE	3	4	[0, 0, 0]	n/a	FR1	2	R1060M
690.696	1.6	364796	WORD	n/a	wordpools/wordpool_EN.txt	WEB	4	4	[0, 0, 0]	n/a	FR1	2	R1060M
693.064	1.6	365980	WORD	n/a	wordpools/wordpool_EN.txt	MUG	5	4	[0, 0, 0]	n/a	FR1	2	R1060M
695.498	1.6	367197	WORD	n/a	wordpools/wordpool_EN.txt	SKUNK	6	4	[0, 0, 0]	n/a	FR1	2	R1060M
697.982	1.6	368439	WORD	n/a	wordpools/wordpool_EN.txt	SHEEP	7	4	[0, 0, 0]	n/a	FR1	2	R1060M
700.599	1.6	369748	WORD	n/a	wordpools/wordpool_EN.txt	PET	8	4	[0, 0, 0]	n/a	FR1	2	R1060M
703.133	1.6	371015	WORD	n/a	wordpools/wordpool_EN.txt	CLOTH	9	4	[0, 0, 0]	n/a	FR1	2	R1060M
705.55	1.6	372223	WORD	n/a	wordpools/wordpool_EN.txt	HAWK	10	4	[0, 0, 0]	n/a	FR1	2	R1060M
707.984	1.6	373440	WORD	n/a	wordpools/wordpool_EN.txt	FUDGE	11	4	[0, 0, 0]	n/a	FR1	2	R1060M
710.518	1.6	374707	WORD	n/a	wordpools/wordpool_EN.txt	CALF	12	4	[0, 0, 0]	n/a	FR1	2	R1060M
712.135	0.001	375516	DISTRACT_START	n/a	n/a	n/a	-999	4	[0, 0, 0]	n/a	FR1	2	R1060M
712.136	0.015	375516	START	n/a	n/a	n/a	-999	4	[-999, -999, -999]	n/a	FR1	2	R1060M
712.151	3.634	375524	PROB	3.603	n/a	n/a	-999	4	[7, 9, 7]	23.0	FR1	2	R1060M
715.785	2.851	377341	PROB	2.825	n/a	n/a	-999	4	[7, 2, 9]	18.0	FR1	2	R1060M
718.636	4.201	378766	PROB	4.166	n/a	n/a	-999	4	[4, 6, 5]	15.0	FR1	2	R1060M
722.837	3.084	380867	PROB	3.061	n/a	n/a	-999	4	[4, 1, 5]	10.0	FR1	2	R1060M
725.921	3.083	382408	PROB	3.057	n/a	n/a	-999	4	[1, 4, 5]	10.0	FR1	2	R1060M
729.004	4.798	383950	PROB	4.798	n/a	n/a	-999	4	[3, 8, 5]	16.0	FR1	2	R1060M
733.802	0.003	386349	STOP	n/a	n/a	n/a	-999	4	[-999, -999, -999]	n/a	FR1	2	R1060M
733.805	1.068	386350	DISTRACT_END	n/a	n/a	n/a	-999	4	[0, 0, 0]	n/a	FR1	2	R1060M
734.873	0.673	386884	REC_START	n/a	n/a	n/a	-999	4	[0, 0, 0]	n/a	FR1	2	R1060M
735.546	1.821	387221	REC_WORD	0.673	n/a	FUDGE	-999	4	[0, 0, 0]	n/a	FR1	2	R1060M
737.367	12.09	388131	REC_WORD	2.494	n/a	HAWK	-999	4	[0, 0, 0]	n/a	FR1	2	R1060M
749.457	7.163	394176	REC_WORD	14.584	n/a	COTTON	-999	4	[0, 0, 0]	n/a	FR1	2	R1060M
756.62	1.267	397758	REC_WORD	21.747	n/a	BED	-999	4	[0, 0, 0]	n/a	FR1	2	R1060M
757.887	6.996	398391	REC_WORD	23.014	n/a	BOAT	-999	4	[0, 0, 0]	n/a	FR1	2	R1060M
764.883	2.179	401889	REC_END	n/a	n/a	n/a	-999	4	[0, 0, 0]	n/a	FR1	2	R1060M
767.062	10.0	402979	COUNTDOWN_START	n/a	n/a	n/a	-999	5	[0, 0, 0]	n/a	FR1	2	R1060M
767.062	10.428	402979	TRIAL	n/a	n/a	n/a	-999	5	[0, 0, 0]	n/a	FR1	2	R1060M
777.49	0.007	408193	COUNTDOWN_END	n/a	n/a	n/a	-999	5	[0, 0, 0]	n/a	FR1	2	R1060M
777.497	1.6	408196	ORIENT	n/a	n/a	n/a	-999	5	[0, 0, 0]	n/a	FR1	2	R1060M
780.064	1.6	409480	WORD	n/a	wordpools/wordpool_EN.txt	BREAD	1	5	[0, 0, 0]	n/a	FR1	2	R1060M
782.681	1.6	410788	WORD	n/a	wordpools/wordpool_EN.txt	SPOON	2	5	[0, 0, 0]	n/a	FR1	2	R1060M
785.266	1.6	412081	WORD	n/a	wordpools/wordpool_EN.txt	RAT	3	5	[0, 0, 0]	n/a	FR1	2	R1060M
787.816	1.6	413356	WORD	n/a	wordpools/wordpool_EN.txt	CLAY	4	5	[0, 0, 0]	n/a	FR1	2	R1060M
790.416	1.6	414656	WORD	n/a	wordpools/wordpool_EN.txt	PIPE	5	5	[0, 0, 0]	n/a	FR1	2	R1060M
792.867	1.6	415881	WORD	n/a	wordpools/wordpool_EN.txt	PIT	6	5	[0, 0, 0]	n/a	FR1	2	R1060M
795.434	1.6	417165	WORD	n/a	wordpools/wordpool_EN.txt	CUP	7	5	[0, 0, 0]	n/a	FR1	2	R1060M
797.918	1.6	418407	WORD	n/a	wordpools/wordpool_EN.txt	HAND	8	5	[0, 0, 0]	n/a	FR1	2	R1060M
800.485	1.6	419690	WORD	n/a	wordpools/wordpool_EN.txt	PEACH	9	5	[0, 0, 0]	n/a	FR1	2	R1060M
802.952	1.6	420924	WORD	n/a	wordpools/wordpool_EN.txt	STONE	10	5	[0, 0, 0]	n/a	FR1	2	R1060M
805.419	1.6	422157	WORD	n/a	wordpools/wordpool_EN.txt	FLUTE	11	5	[0, 0, 0]	n/a	FR1	2	R1060M
807.837	1.6	423366	WORD	n/a	wordpools/wordpool_EN.txt	TOE	12	5	[0, 0, 0]	n/a	FR1	2	R1060M
809.454	0.0	424175	DISTRACT_START	n/a	n/a	n/a	-999	5	[0, 0, 0]	n/a	FR1	2	R1060M
809.454	0.016	424175	START	n/a	n/a	n/a	-999	5	[-999, -999, -999]	n/a	FR1	2	R1060M
809.47	2.967	424183	PROB	2.94	n/a	n/a	-999	5	[6, 2, 2]	10.0	FR1	2	R1060M
812.437	2.651	425666	PROB	2.621	n/a	n/a	-999	5	[4, 3, 7]	14.0	FR1	2	R1060M
815.088	2.717	426992	PROB	2.69	n/a	n/a	-999	5	[3, 3, 8]	19.0	FR1	2	R1060M
817.805	9.652	428350	PROB	9.629	n/a	n/a	-999	5	[9, 4, 8]	21.0	FR1	2	R1060M
827.457	3.985	433176	PROB	3.985	n/a	n/a	-999	5	[5, 6, 2]	13.0	FR1	2	R1060M
831.442	0.016	435169	STOP	n/a	n/a	n/a	-999	5	[-999, -999, -999]	n/a	FR1	2	R1060M
831.458	1.167	435177	DISTRACT_END	n/a	n/a	n/a	-999	5	[0, 0, 0]	n/a	FR1	2	R1060M
832.625	1.695	435760	REC_START	n/a	n/a	n/a	-999	5	[0, 0, 0]	n/a	FR1	2	R1060M
834.32	2.099	436608	REC_WORD	1.695	n/a	SPOON	-999	5	[0, 0, 0]	n/a	FR1	2	R1060M
836.419	3.187	437657	REC_WORD	3.794	n/a	RAT	-999	5	[0, 0, 0]	n/a	FR1	2	R1060M
839.606	5.29	439250	REC_WORD	6.981	n/a	COAT	-999	5	[0, 0, 0]	n/a	FR1	2	R1060M
844.896	12.992	441895	REC_WORD	12.271	n/a	PIT	-999	5	[0, 0, 0]	n/a	FR1	2	R1060M
857.888	4.749	448391	REC_WORD	25.263	n/a	SPIN	-999	5	[0, 0, 0]	n/a	FR1	2	R1060M
862.637	1.96	450766	REC_END	n/a	n/a	n/a	-999	5	[0, 0, 0]	n/a	FR1	2	R1060M
864.597	0.0	451746	TRIAL	n/a	n/a	n/a	-999	6	[0, 0, 0]	n/a	FR1	2	R1060M
864.597	10.0	451746	COUNTDOWN_START	n/a	n/a	n/a	-999	6	[0, 0, 0]	n/a	FR1	2	R1060M
875.025	0.008	456960	COUNTDOWN_END	n/a	n/a	n/a	-999	6	[0, 0, 0]	n/a	FR1	2	R1060M
875.033	1.6	456964	ORIENT	n/a	n/a	n/a	-999	6	[0, 0, 0]	n/a	FR1	2	R1060M
877.533	1.6	458214	WORD	n/a	wordpools/wordpool_EN.txt	CHEEK	1	6	[0, 0, 0]	n/a	FR1	2	R1060M
880.017	1.6	459456	WORD	n/a	wordpools/wordpool_EN.txt	RAIN	2	6	[0, 0, 0]	n/a	FR1	2	R1060M
882.534	1.6	460714	WORD	n/a	wordpools/wordpool_EN.txt	TOAST	3	6	[0, 0, 0]	n/a	FR1	2	R1060M
884.968	1.6	461931	WORD	n/a	wordpools/wordpool_EN.txt	CAPE	4	6	[0, 0, 0]	n/a	FR1	2	R1060M
887.419	1.6	463157	WORD	n/a	wordpools/wordpool_EN.txt	LAND	5	6	[0, 0, 0]	n/a	FR1	2	R1060M
890.002	1.6	464448	WORD	n/a	wordpools/wordpool_EN.txt	RICE	6	6	[0, 0, 0]	n/a	FR1	2	R1060M
892.403	1.6	465649	WORD	n/a	wordpools/wordpool_EN.txt	DOCK	7	6	[0, 0, 0]	n/a	FR1	2	R1060M
894.837	1.6	466866	WORD	n/a	wordpools/wordpool_EN.txt	CANE	8	6	[0, 0, 0]	n/a	FR1	2	R1060M
897.287	1.6	468091	WORD	n/a	wordpools/wordpool_EN.txt	SUN	9	6	[0, 0, 0]	n/a	FR1	2	R1060M
899.754	1.6	469324	WORD	n/a	wordpools/wordpool_EN.txt	SHIP	10	6	[0, 0, 0]	n/a	FR1	2	R1060M
902.205	1.6	470550	WORD	n/a	wordpools/wordpool_EN.txt	EEL	11	6	[0, 0, 0]	n/a	FR1	2	R1060M
904.704	1.6	471799	WORD	n/a	wordpools/wordpool_EN.txt	FOAM	12	6	[0, 0, 0]	n/a	FR1	2	R1060M
906.305	0.001	472600	DISTRACT_START	n/a	n/a	n/a	-999	6	[0, 0, 0]	n/a	FR1	2	R1060M
906.306	0.016	472600	START	n/a	n/a	n/a	-999	6	[-999, -999, -999]	n/a	FR1	2	R1060M
906.322	2.801	472608	PROB	2.776	n/a	n/a	-999	6	[9, 5, 5]	19.0	FR1	2	R1060M
909.123	2.417	474009	PROB	2.383	n/a	n/a	-999	6	[1, 4, 5]	10.0	FR1	2	R1060M
911.54	2.5	475217	PROB	2.47	n/a	n/a	-999	6	[5, 4, 2]	11.0	FR1	2	R1060M
914.04	4.184	476467	PROB	4.154	n/a	n/a	-999	6	[9, 4, 3]	16.0	FR1	2	R1060M
918.224	2.901	478559	PROB	2.866	n/a	n/a	-999	6	[4, 3, 6]	13.0	FR1	2	R1060M
921.125	1.967	480010	PROB	1.941	n/a	n/a	-999	6	[3, 3, 1]	7.0	FR1	2	R1060M
923.092	2.517	480993	PROB	2.494	n/a	n/a	-999	6	[7, 7, 2]	16.0	FR1	2	R1060M
925.609	2.777	482252	PROB	2.777	n/a	n/a	-999	6	[4, 4, 6]	14.0	FR1	2	R1060M
928.386	0.007	483640	STOP	n/a	n/a	n/a	-999	6	[-999, -999, -999]	n/a	FR1	2	R1060M
928.393	1.134	483644	DISTRACT_END	n/a	n/a	n/a	-999	6	[0, 0, 0]	n/a	FR1	2	R1060M
929.527	1.059	484211	REC_START	n/a	n/a	n/a	-999	6	[0, 0, 0]	n/a	FR1	2	R1060M
930.586	1.218	484740	REC_WORD	1.059	n/a	RICE	-999	6	[0, 0, 0]	n/a	FR1	2	R1060M
931.804	1.685	485349	REC_WORD	2.277	n/a	DOCK	-999	6	[0, 0, 0]	n/a	FR1	2	R1060M
933.489	1.56	486192	REC_WORD	3.962	n/a	CANE	-999	6	[0, 0, 0]	n/a	FR1	2	R1060M
935.049	1.144	486972	REC_WORD	5.522	n/a	SHIP	-999	6	[0, 0, 0]	n/a	FR1	2	R1060M
936.193	1.532	487544	REC_WORD	6.666	n/a	FOAM	-999	6	[0, 0, 0]	n/a	FR1	2	R1060M
937.725	6.473	488310	REC_WORD	8.198	n/a	EEL	-999	6	[0, 0, 0]	n/a	FR1	2	R1060M
944.198	15.341	491546	REC_WORD	14.671	n/a	RAT	-999	6	[0, 0, 0]	n/a	FR1	2	R1060M
959.539	1.644	499216	REC_END	n/a	n/a	n/a	-999	6	[0, 0, 0]	n/a	FR1	2	R1060M
961.183	10.0	500038	COUNTDOWN_START	n/a	n/a	n/a	-999	7	[0, 0, 0]	n/a	FR1	2	R1060M
961.183	10.428	500038	TRIAL	n/a	n/a	n/a	-999	7	[0, 0, 0]	n/a	FR1	2	R1060M
971.611	0.007	505252	COUNTDOWN_END	n/a	n/a	n/a	-999	7	[0, 0, 0]	n/a	FR1	2	R1060M
971.618	1.6	505256	ORIENT	n/a	n/a	n/a	-999	7	[0, 0, 0]	n/a	FR1	2	R1060M
974.185	1.6	506539	WORD	n/a	wordpools/wordpool_EN.txt	POOL	1	7	[0, 0, 0]	n/a	FR1	2	R1060M
976.718	1.6	507806	WORD	n/a	wordpools/wordpool_EN.txt	SALT	2	7	[0, 0, 0]	n/a	FR1	2	R1060M
979.186	1.6	509040	WORD	n/a	wordpools/wordpool_EN.txt	OAR	3	7	[0, 0, 0]	n/a	FR1	2	R1060M
981.637	1.6	510265	WORD	n/a	wordpools/wordpool_EN.txt	BEAN	4	7	[0, 0, 0]	n/a	FR1	2	R1060M
984.204	1.6	511549	WORD	n/a	wordpools/wordpool_EN.txt	SHRIMP	5	7	[0, 0, 0]	n/a	FR1	2	R1060M
986.737	1.6	512815	WORD	n/a	wordpools/wordpool_EN.txt	FLAME	6	7	[0, 0, 0]	n/a	FR1	2	R1060M
989.355	1.6	514124	WORD	n/a	wordpools/wordpool_EN.txt	GEESE	7	7	[0, 0, 0]	n/a	FR1	2	R1060M
991.922	1.6	515408	WORD	n/a	wordpools/wordpool_EN.txt	WING	8	7	[0, 0, 0]	n/a	FR1	2	R1060M
994.472	1.6	516683	WORD	n/a	wordpools/wordpool_EN.txt	STOVE	9	7	[0, 0, 0]	n/a	FR1	2	R1060M
997.023	1.6	517958	WORD	n/a	wordpools/wordpool_EN.txt	SWAMP	10	7	[0, 0, 0]	n/a	FR1	2	R1060M
999.507	1.6	519200	WORD	n/a	wordpools/wordpool_EN.txt	DEER	11	7	[0, 0, 0]	n/a	FR1	2	R1060M
1002.09	1.6	520492	WORD	n/a	wordpools/wordpool_EN.txt	PIE	12	7	[0, 0, 0]	n/a	FR1	2	R1060M
1003.706	0.001	521300	DISTRACT_START	n/a	n/a	n/a	-999	7	[0, 0, 0]	n/a	FR1	2	R1060M
1003.707	0.016	521300	START	n/a	n/a	n/a	-999	7	[-999, -999, -999]	n/a	FR1	2	R1060M
1003.723	3.035	521308	PROB	2.998	n/a	n/a	-999	7	[2, 2, 6]	10.0	FR1	2	R1060M
1006.758	2.717	522826	PROB	2.684	n/a	n/a	-999	7	[7, 6, 7]	20.0	FR1	2	R1060M
1009.475	2.551	524184	PROB	2.519	n/a	n/a	-999	7	[2, 8, 2]	12.0	FR1	2	R1060M
1012.026	3.067	525460	PROB	3.032	n/a	n/a	-999	7	[1, 9, 2]	12.0	FR1	2	R1060M
1015.093	2.551	526993	PROB	2.525	n/a	n/a	-999	7	[2, 2, 6]	10.0	FR1	2	R1060M
1017.644	4.584	528269	PROB	4.558	n/a	n/a	-999	7	[7, 7, 7]	21.0	FR1	2	R1060M
1022.228	2.662	530561	PROB	2.662	n/a	n/a	-999	7	[6, 3, 1]	10.0	FR1	2	R1060M
1024.89	0.005	531892	STOP	n/a	n/a	n/a	-999	7	[-999, -999, -999]	n/a	FR1	2	R1060M
1024.895	1.117	531894	DISTRACT_END	n/a	n/a	n/a	-999	7	[0, 0, 0]	n/a	FR1	2	R1060M
1026.012	1.71	532453	REC_START	n/a	n/a	n/a	-999	7	[0, 0, 0]	n/a	FR1	2	R1060M
1027.722	1.31	533308	REC_WORD_VV	1.71	n/a	<>	-999	7	[0, 0, 0]	n/a	FR1	2	R1060M
1029.032	1.259	533963	REC_WORD	3.02	n/a	SWING	-999	7	[0, 0, 0]	n/a	FR1	2	R1060M
1030.291	2.299	534592	REC_WORD	4.279	n/a	SWAMP	-999	7	[0, 0, 0]	n/a	FR1	2	R1060M
1032.59	6.847	535742	REC_WORD	6.578	n/a	STOVE	-999	7	[0, 0, 0]	n/a	FR1	2	R1060M
1039.437	1.265	539165	REC_WORD	13.425	n/a	DEER	-999	7	[0, 0, 0]	n/a	FR1	2	R1060M
1040.702	15.324	539798	REC_WORD	14.69	n/a	PIE	-999	7	[0, 0, 0]	n/a	FR1	2	R1060M
1056.026	2.109	547460	REC_END	n/a	n/a	n/a	-999	7	[0, 0, 0]	n/a	FR1	2	R1060M
1058.135	0.0	548514	TRIAL	n/a	n/a	n/a	-999	8	[0, 0, 0]	n/a	FR1	2	R1060M
1058.135	10.0	548514	COUNTDOWN_START	n/a	n/a	n/a	-999	8	[0, 0, 0]	n/a	FR1	2	R1060M
1068.563	0.007	553728	COUNTDOWN_END	n/a	n/a	n/a	-999	8	[0, 0, 0]	n/a	FR1	2	R1060M
1068.57	1.6	553731	ORIENT	n/a	n/a	n/a	-999	8	[0, 0, 0]	n/a	FR1	2	R1060M
1071.121	1.6	555007	WORD	n/a	wordpools/wordpool_EN.txt	SMILE	1	8	[0, 0, 0]	n/a	FR1	2	R1060M
1073.571	1.6	556232	WORD	n/a	wordpools/wordpool_EN.txt	FAN	2	8	[0, 0, 0]	n/a	FR1	2	R1060M
1075.955	1.6	557424	WORD	n/a	wordpools/wordpool_EN.txt	CART	3	8	[0, 0, 0]	n/a	FR1	2	R1060M
1078.339	1.6	558616	WORD	n/a	wordpools/wordpool_EN.txt	SEAT	4	8	[0, 0, 0]	n/a	FR1	2	R1060M
1080.806	1.6	559849	WORD	n/a	wordpools/wordpool_EN.txt	BOX	5	8	[0, 0, 0]	n/a	FR1	2	R1060M
1083.34	1.6	561116	WORD	n/a	wordpools/wordpool_EN.txt	GLOVE	6	8	[0, 0, 0]	n/a	FR1	2	R1060M
1085.739	1.6	562316	WORD	n/a	wordpools/wordpool_EN.txt	WAND	7	8	[0, 0, 0]	n/a	FR1	2	R1060M
1088.341	1.6	563617	WORD	n/a	wordpools/wordpool_EN.txt	ARM	8	8	[0, 0, 0]	n/a	FR1	2	R1060M
1090.808	1.6	564850	WORD	n/a	wordpools/wordpool_EN.txt	BAG	9	8	[0, 0, 0]	n/a	FR1	2	R1060M
1093.208	1.6	566050	WORD	n/a	wordpools/wordpool_EN.txt	BROOM	10	8	[0, 0, 0]	n/a	FR1	2	R1060M
1095.592	1.6	567242	WORD	n/a	wordpools/wordpool_EN.txt	FENCE	11	8	[0, 0, 0]	n/a	FR1	2	R1060M
1098.093	1.6	568493	WORD	n/a	wordpools/wordpool_EN.txt	SIGN	12	8	[0, 0, 0]	n/a	FR1	2	R1060M
1099.708	0.001	569300	DISTRACT_START	n/a	n/a	n/a	-999	8	[0, 0, 0]	n/a	FR1	2	R1060M
1099.709	0.016	569301	START	n/a	n/a	n/a	-999	8	[-999, -999, -999]	n/a	FR1	2	R1060M
1099.725	8.519	569309	PROB	8.485	n/a	n/a	-999	8	[6, 5, 7]	18.0	FR1	2	R1060M
1108.244	3.518	573568	PROB	3.493	n/a	n/a	-999	8	[8, 3, 7]	18.0	FR1	2	R1060M
1111.762	3.484	575327	PROB	3.448	n/a	n/a	-999	8	[7, 7, 8]	23.0	FR1	2	R1060M
1115.246	4.351	577069	PROB	4.324	n/a	n/a	-999	8	[4, 8, 6]	18.0	FR1	2	R1060M
1119.597	4.173	579245	PROB	4.173	n/a	n/a	-999	8	[5, 8, 9]	21.0	FR1	2	R1060M
1123.77	0.011	581331	STOP	n/a	n/a	n/a	-999	8	[-999, -999, -999]	n/a	FR1	2	R1060M
1123.781	1.051	581337	DISTRACT_END	n/a	n/a	n/a	-999	8	[0, 0, 0]	n/a	FR1	2	R1060M
1124.832	1.422	581862	REC_START	n/a	n/a	n/a	-999	8	[0, 0, 0]	n/a	FR1	2	R1060M
1126.254	2.494	582573	REC_WORD_VV	1.422	n/a	<>	-999	8	[0, 0, 0]	n/a	FR1	2	R1060M
1128.748	2.304	583820	REC_WORD	3.916	n/a	ARM	-999	8	[0, 0, 0]	n/a	FR1	2	R1060M
1131.052	3.677	584972	REC_WORD	6.22	n/a	BOX	-999	8	[0, 0, 0]	n/a	FR1	2	R1060M
1134.729	4.514	586811	REC_WORD	9.897	n/a	GLOVE	-999	8	[0, 0, 0]	n/a	FR1	2	R1060M
1139.243	8.001	589068	REC_WORD	14.411	n/a	BROOM	-999	8	[0, 0, 0]	n/a	FR1	2	R1060M
1147.244	7.596	593068	REC_WORD	22.412	n/a	PIE	-999	8	[0, 0, 0]	n/a	FR1	2	R1060M
1154.84	1.846	596866	REC_END	n/a	n/a	n/a	-999	8	[0, 0, 0]	n/a	FR1	2	R1060M
1156.686	10.0	597789	COUNTDOWN_START	n/a	n/a	n/a	-999	9	[0, 0, 0]	n/a	FR1	2	R1060M
1156.686	10.428	597789	TRIAL	n/a	n/a	n/a	-999	9	[0, 0, 0]	n/a	FR1	2	R1060M
1167.114	0.008	603003	COUNTDOWN_END	n/a	n/a	n/a	-999	9	[0, 0, 0]	n/a	FR1	2	R1060M
1167.122	1.6	603007	ORIENT	n/a	n/a	n/a	-999	9	[0, 0, 0]	n/a	FR1	2	R1060M
1169.54	1.6	604216	WORD	n/a	wordpools/wordpool_EN.txt	ROCK	1	9	[0, 0, 0]	n/a	FR1	2	R1060M
1171.973	1.6	605432	WORD	n/a	wordpools/wordpool_EN.txt	CLIFF	2	9	[0, 0, 0]	n/a	FR1	2	R1060M
1174.541	1.6	606716	WORD	n/a	wordpools/wordpool_EN.txt	FUR	3	9	[0, 0, 0]	n/a	FR1	2	R1060M
1177.091	1.6	607991	WORD	n/a	wordpools/wordpool_EN.txt	PIG	4	9	[0, 0, 0]	n/a	FR1	2	R1060M
1179.508	1.6	609200	WORD	n/a	wordpools/wordpool_EN.txt	STORE	5	9	[0, 0, 0]	n/a	FR1	2	R1060M
1182.092	1.6	610492	WORD	n/a	wordpools/wordpool_EN.txt	JAR	6	9	[0, 0, 0]	n/a	FR1	2	R1060M
1184.592	1.6	611742	WORD	n/a	wordpools/wordpool_EN.txt	CORN	7	9	[0, 0, 0]	n/a	FR1	2	R1060M
1187.06	1.6	612976	WORD	n/a	wordpools/wordpool_EN.txt	BEAK	8	9	[0, 0, 0]	n/a	FR1	2	R1060M
1189.444	1.6	614168	WORD	n/a	wordpools/wordpool_EN.txt	CAVE	9	9	[0, 0, 0]	n/a	FR1	2	R1060M
1191.994	1.6	615443	WORD	n/a	wordpools/wordpool_EN.txt	BEACH	10	9	[0, 0, 0]	n/a	FR1	2	R1060M
1194.511	1.6	616701	WORD	n/a	wordpools/wordpool_EN.txt	DRUM	11	9	[0, 0, 0]	n/a	FR1	2	R1060M
1196.945	1.6	617918	WORD	n/a	wordpools/wordpool_EN.txt	VINE	12	9	[0, 0, 0]	n/a	FR1	2	R1060M
1198.562	0.001	618727	DISTRACT_START	n/a	n/a	n/a	-999	9	[0, 0, 0]	n/a	FR1	2	R1060M
1198.563	0.016	618727	START	n/a	n/a	n/a	-999	9	[-999, -999, -999]	n/a	FR1	2	R1060M
1198.579	3.5	618735	PROB	3.471	n/a	n/a	-999	9	[6, 8, 6]	20.0	FR1	2	R1060M
1202.079	3.268	620485	PROB	3.235	n/a	n/a	-999	9	[2, 8, 4]	14.0	FR1	2	R1060M
1205.347	2.8	622119	PROB	2.775	n/a	n/a	-999	9	[2, 4, 4]	10.0	FR1	2	R1060M
1208.147	2.634	623519	PROB	2.607	n/a	n/a	-999	9	[5, 1, 6]	12.0	FR1	2	R1060M
1210.781	2.45	624836	PROB	2.429	n/a	n/a	-999	9	[4, 2, 6]	14.0	FR1	2	R1060M
1213.231	2.634	626061	PROB	2.611	n/a	n/a	-999	9	[6, 8, 1]	15.0	FR1	2	R1060M
1215.865	2.872	627378	PROB	2.872	n/a	n/a	-999	9	[9, 3, 8]	20.0	FR1	2	R1060M
1218.737	0.011	628814	STOP	n/a	n/a	n/a	-999	9	[-999, -999, -999]	n/a	FR1	2	R1060M
1218.748	1.152	628820	DISTRACT_END	n/a	n/a	n/a	-999	9	[0, 0, 0]	n/a	FR1	2	R1060M
1219.9	1.061	629396	REC_START	n/a	n/a	n/a	-999	9	[0, 0, 0]	n/a	FR1	2	R1060M
1220.961	1.831	629926	REC_WORD	1.061	n/a	CORN	-999	9	[0, 0, 0]	n/a	FR1	2	R1060M
1222.792	0.857	630842	REC_WORD	2.892	n/a	BEEF	-999	9	[0, 0, 0]	n/a	FR1	2	R1060M
1223.649	3.153	631270	REC_WORD	3.749	n/a	CAVE	-999	9	[0, 0, 0]	n/a	FR1	2	R1060M
1226.802	6.904	632847	REC_WORD	6.902	n/a	ROCK	-999	9	[0, 0, 0]	n/a	FR1	2	R1060M
1233.706	4.267	636299	REC_WORD	13.806	n/a	STORE	-999	9	[0, 0, 0]	n/a	FR1	2	R1060M
1237.973	11.936	638432	REC_WORD	18.073	n/a	VINE	-999	9	[0, 0, 0]	n/a	FR1	2	R1060M
1249.909	1.48	644400	REC_END	n/a	n/a	n/a	-999	9	[0, 0, 0]	n/a	FR1	2	R1060M
1251.389	0.0	645140	TRIAL	n/a	n/a	n/a	-999	10	[0, 0, 0]	n/a	FR1	2	R1060M
1251.389	10.0	645140	COUNTDOWN_START	n/a	n/a	n/a	-999	10	[0, 0, 0]	n/a	FR1	2	R1060M
1261.817	0.007	650354	COUNTDOWN_END	n/a	n/a	n/a	-999	10	[0, 0, 0]	n/a	FR1	2	R1060M
1261.824	1.6	650358	ORIENT	n/a	n/a	n/a	-999	10	[0, 0, 0]	n/a	FR1	2	R1060M
1264.325	1.6	651608	WORD	n/a	wordpools/wordpool_EN.txt	CRANE	1	10	[0, 0, 0]	n/a	FR1	2	R1060M
1266.942	1.6	652917	WORD	n/a	wordpools/wordpool_EN.txt	LOCK	2	10	[0, 0, 0]	n/a	FR1	2	R1060M
1269.476	1.6	654184	WORD	n/a	wordpools/wordpool_EN.txt	CROW	3	10	[0, 0, 0]	n/a	FR1	2	R1060M
1272.01	1.6	655451	WORD	n/a	wordpools/wordpool_EN.txt	OAK	4	10	[0, 0, 0]	n/a	FR1	2	R1060M
1274.51	1.6	656701	WORD	n/a	wordpools/wordpool_EN.txt	HOLE	5	10	[0, 0, 0]	n/a	FR1	2	R1060M
1277.094	1.6	657993	WORD	n/a	wordpools/wordpool_EN.txt	GUARD	6	10	[0, 0, 0]	n/a	FR1	2	R1060M
1279.71	1.6	659301	WORD	n/a	wordpools/wordpool_EN.txt	LIP	7	10	[0, 0, 0]	n/a	FR1	2	R1060M
1282.228	1.6	660560	WORD	n/a	wordpools/wordpool_EN.txt	TOOL	8	10	[0, 0, 0]	n/a	FR1	2	R1060M
1284.812	1.6	661851	WORD	n/a	wordpools/wordpool_EN.txt	COUCH	9	10	[0, 0, 0]	n/a	FR1	2	R1060M
1287.329	1.6	663110	WORD	n/a	wordpools/wordpool_EN.txt	LAWN	10	10	[0, 0, 0]	n/a	FR1	2	R1060M
1289.946	1.6	664418	WORD	n/a	wordpools/wordpool_EN.txt	TENT	11	10	[0, 0, 0]	n/a	FR1	2	R1060M
1292.38	1.6	665635	WORD	n/a	wordpools/wordpool_EN.txt	CUBE	12	10	[0, 0, 0]	n/a	FR1	2	R1060M
1293.997	0.001	666444	DISTRACT_START	n/a	n/a	n/a	-999	10	[0, 0, 0]	n/a	FR1	2	R1060M
1293.998	0.016	666444	START	n/a	n/a	n/a	-999	10	[-999, -999, -999]	n/a	FR1	2	R1060M
1294.014	2.4	666452	PROB	2.372	n/a	n/a	-999	10	[1, 5, 1]	7.0	FR1	2	R1060M
1296.414	3.084	667652	PROB	3.06	n/a	n/a	-999	10	[7, 8, 5]	20.0	FR1	2	R1060M
1299.498	3.334	669194	PROB	3.304	n/a	n/a	-999	10	[5, 8, 7]	20.0	FR1	2	R1060M
1302.832	3.317	670861	PROB	3.29	n/a	n/a	-999	10	[8, 9, 3]	20.0	FR1	2	R1060M
1306.149	3.318	672520	PROB	3.285	n/a	n/a	-999	10	[5, 9, 7]	21.0	FR1	2	R1060M
1309.467	3.249	674179	PROB	3.215	n/a	n/a	-999	10	[7, 8, 5]	20.0	FR1	2	R1060M
1312.716	2.926	675803	PROB	2.926	n/a	n/a	-999	10	[5, 8, 5]	18.0	FR1	2	R1060M
1315.642	0.008	677266	STOP	n/a	n/a	n/a	-999	10	[-999, -999, -999]	n/a	FR1	2	R1060M
1315.65	1.135	677270	DISTRACT_END	n/a	n/a	n/a	-999	10	[0, 0, 0]	n/a	FR1	2	R1060M
1316.785	0.763	677838	REC_START	n/a	n/a	n/a	-999	10	[0, 0, 0]	n/a	FR1	2	R1060M
1317.548	1.068	678219	REC_WORD	0.763	n/a	LIP	-999	10	[0, 0, 0]	n/a	FR1	2	R1060M
1318.616	1.42	678753	REC_WORD	1.831	n/a	TOOL	-999	10	[0, 0, 0]	n/a	FR1	2	R1060M
1320.036	1.298	679463	REC_WORD	3.251	n/a	COUCH	-999	10	[0, 0, 0]	n/a	FR1	2	R1060M
1321.334	1.556	680112	REC_WORD	4.549	n/a	LAWN	-999	10	[0, 0, 0]	n/a	FR1	2	R1060M
1322.89	2.603	680890	REC_WORD	6.105	n/a	TENT	-999	10	[0, 0, 0]	n/a	FR1	2	R1060M
1325.493	2.576	682192	REC_WORD	8.708	n/a	CRANE	-999	10	[0, 0, 0]	n/a	FR1	2	R1060M
1328.069	18.728	683480	REC_WORD	11.284	n/a	LOCK	-999	10	[0, 0, 0]	n/a	FR1	2	R1060M
1346.797	1.893	692844	REC_END	n/a	n/a	n/a	-999	10	[0, 0, 0]	n/a	FR1	2	R1060M
1348.69	10.0	693790	COUNTDOWN_START	n/a	n/a	n/a	-999	11	[0, 0, 0]	n/a	FR1	2	R1060M
1348.69	10.428	693790	TRIAL	n/a	n/a	n/a	-999	11	[0, 0, 0]	n/a	FR1	2	R1060M
1359.118	0.008	699004	COUNTDOWN_END	n/a	n/a	n/a	-999	11	[0, 0, 0]	n/a	FR1	2	R1060M
1359.126	1.6	699008	ORIENT	n/a	n/a	n/a	-999	11	[0, 0, 0]	n/a	FR1	2	R1060M
1361.709	1.6	700300	WORD	n/a	wordpools/wordpool_EN.txt	NOSE	1	11	[0, 0, 0]	n/a	FR1	2	R1060M
1364.111	1.6	701501	WORD	n/a	wordpools/wordpool_EN.txt	RAKE	2	11	[0, 0, 0]	n/a	FR1	2	R1060M
1366.544	1.6	702717	WORD	n/a	wordpools/wordpool_EN.txt	FOX	3	11	[0, 0, 0]	n/a	FR1	2	R1060M
1369.095	1.6	703993	WORD	n/a	wordpools/wordpool_EN.txt	ZOO	4	11	[0, 0, 0]	n/a	FR1	2	R1060M
1371.545	1.6	705218	WORD	n/a	wordpools/wordpool_EN.txt	SNAKE	5	11	[0, 0, 0]	n/a	FR1	2	R1060M
1374.062	1.6	706476	WORD	n/a	wordpools/wordpool_EN.txt	FLEA	6	11	[0, 0, 0]	n/a	FR1	2	R1060M
1376.513	1.6	707702	WORD	n/a	wordpools/wordpool_EN.txt	HOUSE	7	11	[0, 0, 0]	n/a	FR1	2	R1060M
1378.963	1.6	708927	WORD	n/a	wordpools/wordpool_EN.txt	DUCK	8	11	[0, 0, 0]	n/a	FR1	2	R1060M
1381.514	1.6	710202	WORD	n/a	wordpools/wordpool_EN.txt	PALM	9	11	[0, 0, 0]	n/a	FR1	2	R1060M
1384.131	1.6	711511	WORD	n/a	wordpools/wordpool_EN.txt	CAKE	10	11	[0, 0, 0]	n/a	FR1	2	R1060M
1386.532	1.6	712711	WORD	n/a	wordpools/wordpool_EN.txt	BLUSH	11	11	[0, 0, 0]	n/a	FR1	2	R1060M
1388.965	1.6	713928	WORD	n/a	wordpools/wordpool_EN.txt	BIRD	12	11	[0, 0, 0]	n/a	FR1	2	R1060M
1390.582	0.001	714736	DISTRACT_START	n/a	n/a	n/a	-999	11	[0, 0, 0]	n/a	FR1	2	R1060M
1390.583	0.016	714737	START	n/a	n/a	n/a	-999	11	[-999, -999, -999]	n/a	FR1	2	R1060M
1390.599	5.468	714745	PROB	5.443	n/a	n/a	-999	11	[7, 9, 3]	19.0	FR1	2	R1060M
1396.067	2.684	717478	PROB	2.662	n/a	n/a	-999	11	[5, 7, 7]	19.0	FR1	2	R1060M
1398.751	3.634	718820	PROB	3.611	n/a	n/a	-999	11	[9, 8, 8]	25.0	FR1	2	R1060M
1402.385	3.15	720637	PROB	3.113	n/a	n/a	-999	11	[6, 7, 8]	21.0	FR1	2	R1060M
1405.535	2.667	722212	PROB	2.643	n/a	n/a	-999	11	[6, 7, 3]	16.0	FR1	2	R1060M
1408.202	2.728	723546	PROB	2.728	n/a	n/a	-999	11	[6, 4, 6]	16.0	FR1	2	R1060M
1410.93	0.006	724910	STOP	n/a	n/a	n/a	-999	11	[-999, -999, -999]	n/a	FR1	2	R1060M
1410.936	1.118	724913	DISTRACT_END	n/a	n/a	n/a	-999	11	[0, 0, 0]	n/a	FR1	2	R1060M
1412.054	1.269	725472	REC_START	n/a	n/a	n/a	-999	11	[0, 0, 0]	n/a	FR1	2	R1060M
1413.323	1.307	726106	REC_WORD	1.269	n/a	DUCK	-999	11	[0, 0, 0]	n/a	FR1	2	R1060M
1414.63	1.52	726760	REC_WORD	2.576	n/a	RAKE	-999	11	[0, 0, 0]	n/a	FR1	2	R1060M
1416.15	1.417	727520	REC_WORD	4.096	n/a	PALM	-999	11	[0, 0, 0]	n/a	FR1	2	R1060M
1417.567	24.495	728228	REC_WORD	5.513	n/a	BRUSH	-999	11	[0, 0, 0]	n/a	FR1	2	R1060M
1442.062	2.014	740476	REC_END	n/a	n/a	n/a	-999	11	[0, 0, 0]	n/a	FR1	2	R1060M
1444.076	0.0	741483	TRIAL	n/a	n/a	n/a	-999	12	[0, 0, 0]	n/a	FR1	2	R1060M
1444.076	10.0	741483	COUNTDOWN_START	n/a	n/a	n/a	-999	12	[0, 0, 0]	n/a	FR1	2	R1060M
1454.504	0.007	746697	COUNTDOWN_END	n/a	n/a	n/a	-999	12	[0, 0, 0]	n/a	FR1	2	R1060M
1454.511	1.6	746700	ORIENT	n/a	n/a	n/a	-999	12	[0, 0, 0]	n/a	FR1	2	R1060M
1457.095	1.6	747992	WORD	n/a	wordpools/wordpool_EN.txt	CAT	1	12	[0, 0, 0]	n/a	FR1	2	R1060M
1459.596	1.6	749243	WORD	n/a	wordpools/wordpool_EN.txt	TRAIN	2	12	[0, 0, 0]	n/a	FR1	2	R1060M
1462.029	1.6	750459	WORD	n/a	wordpools/wordpool_EN.txt	JEEP	3	12	[0, 0, 0]	n/a	FR1	2	R1060M
1464.597	1.6	751743	WORD	n/a	wordpools/wordpool_EN.txt	MOON	4	12	[0, 0, 0]	n/a	FR1	2	R1060M
1467.047	1.6	752968	WORD	n/a	wordpools/wordpool_EN.txt	PRINCE	5	12	[0, 0, 0]	n/a	FR1	2	R1060M
1469.514	1.6	754202	WORD	n/a	wordpools/wordpool_EN.txt	HEART	6	12	[0, 0, 0]	n/a	FR1	2	R1060M
1472.015	1.6	755452	WORD	n/a	wordpools/wordpool_EN.txt	BEAR	7	12	[0, 0, 0]	n/a	FR1	2	R1060M
1474.448	1.6	756669	WORD	n/a	wordpools/wordpool_EN.txt	GOLD	8	12	[0, 0, 0]	n/a	FR1	2	R1060M
1476.899	1.6	757894	WORD	n/a	wordpools/wordpool_EN.txt	GRAPE	9	12	[0, 0, 0]	n/a	FR1	2	R1060M
1479.316	1.6	759103	WORD	n/a	wordpools/wordpool_EN.txt	BALL	10	12	[0, 0, 0]	n/a	FR1	2	R1060M
1481.817	1.6	760353	WORD	n/a	wordpools/wordpool_EN.txt	FARM	11	12	[0, 0, 0]	n/a	FR1	2	R1060M
1484.367	1.6	761628	WORD	n/a	wordpools/wordpool_EN.txt	APE	12	12	[0, 0, 0]	n/a	FR1	2	R1060M
1485.984	0.001	762437	DISTRACT_START	n/a	n/a	n/a	-999	12	[0, 0, 0]	n/a	FR1	2	R1060M
1485.985	0.016	762437	START	n/a	n/a	n/a	-999	12	[-999, -999, -999]	n/a	FR1	2	R1060M
1486.001	3.184	762445	PROB	3.161	n/a	n/a	-999	12	[8, 8, 4]	20.0	FR1	2	R1060M
1489.185	4.767	764037	PROB	4.745	n/a	n/a	-999	12	[9, 6, 9]	24.0	FR1	2	R1060M
1493.952	2.284	766421	PROB	2.258	n/a	n/a	-999	12	[2, 6, 4]	12.0	FR1	2	R1060M
1496.236	3.351	767563	PROB	3.319	n/a	n/a	-999	12	[1, 2, 7]	10.0	FR1	2	R1060M
1499.587	2.667	769238	PROB	2.639	n/a	n/a	-999	12	[8, 7, 4]	19.0	FR1	2	R1060M
1502.254	3.167	770572	PROB	3.14	n/a	n/a	-999	12	[2, 3, 9]	14.0	FR1	2	R1060M
1505.421	2.252	772155	PROB	2.252	n/a	n/a	-999	12	[5, 5, 1]	11.0	FR1	2	R1060M
1507.673	0.014	773281	STOP	n/a	n/a	n/a	-999	12	[-999, -999, -999]	n/a	FR1	2	R1060M
1507.687	1.085	773288	DISTRACT_END	n/a	n/a	n/a	-999	12	[0, 0, 0]	n/a	FR1	2	R1060M
1508.772	0.863	773830	REC_START	n/a	n/a	n/a	-999	12	[0, 0, 0]	n/a	FR1	2	R1060M
1509.635	1.133	774262	REC_WORD	0.863	n/a	HEART	-999	12	[0, 0, 0]	n/a	FR1	2	R1060M
1510.768	1.441	774828	REC_WORD	1.996	n/a	BEAR	-999	12	[0, 0, 0]	n/a	FR1	2	R1060M
1512.209	1.625	775549	REC_WORD	3.437	n/a	GOLD	-999	12	[0, 0, 0]	n/a	FR1	2	R1060M
1513.834	2.088	776361	REC_WORD	5.062	n/a	GRAPE	-999	12	[0, 0, 0]	n/a	FR1	2	R1060M
1515.922	8.344	777405	REC_WORD	7.15	n/a	COW	-999	12	[0, 0, 0]	n/a	FR1	2	R1060M
1524.266	12.406	781577	REC_WORD	15.494	n/a	CLUSH	-999	12	[0, 0, 0]	n/a	FR1	2	R1060M
1536.672	2.115	787780	REC_WORD	27.9	n/a	CAT	-999	12	[0, 0, 0]	n/a	FR1	2	R1060M
1538.787	2.241	788838	REC_END	n/a	n/a	n/a	-999	12	[0, 0, 0]	n/a	FR1	2	R1060M
1541.028	0.0	789958	TRIAL	n/a	n/a	n/a	-999	13	[0, 0, 0]	n/a	FR1	2	R1060M
1541.028	10.0	789958	COUNTDOWN_START	n/a	n/a	n/a	-999	13	[0, 0, 0]	n/a	FR1	2	R1060M
1551.456	0.007	795172	COUNTDOWN_END	n/a	n/a	n/a	-999	13	[0, 0, 0]	n/a	FR1	2	R1060M
1551.463	1.6	795176	ORIENT	n/a	n/a	n/a	-999	13	[0, 0, 0]	n/a	FR1	2	R1060M
1553.914	1.6	796401	WORD	n/a	wordpools/wordpool_EN.txt	STEAK	1	13	[0, 0, 0]	n/a	FR1	2	R1060M
1556.431	1.6	797660	WORD	n/a	wordpools/wordpool_EN.txt	EAR	2	13	[0, 0, 0]	n/a	FR1	2	R1060M
1558.881	1.6	798885	WORD	n/a	wordpools/wordpool_EN.txt	MOUTH	3	13	[0, 0, 0]	n/a	FR1	2	R1060M
1561.449	1.6	800169	WORD	n/a	wordpools/wordpool_EN.txt	CAGE	4	13	[0, 0, 0]	n/a	FR1	2	R1060M
1563.966	1.6	801427	WORD	n/a	wordpools/wordpool_EN.txt	PHONE	5	13	[0, 0, 0]	n/a	FR1	2	R1060M
1566.516	1.6	802702	WORD	n/a	wordpools/wordpool_EN.txt	MULE	6	13	[0, 0, 0]	n/a	FR1	2	R1060M
1569.1	1.6	803994	WORD	n/a	wordpools/wordpool_EN.txt	ARK	7	13	[0, 0, 0]	n/a	FR1	2	R1060M
1571.7	1.6	805294	WORD	n/a	wordpools/wordpool_EN.txt	BOY	8	13	[0, 0, 0]	n/a	FR1	2	R1060M
1574.184	1.6	806536	WORD	n/a	wordpools/wordpool_EN.txt	TEETH	9	13	[0, 0, 0]	n/a	FR1	2	R1060M
1576.618	1.6	807753	WORD	n/a	wordpools/wordpool_EN.txt	SEAL	10	13	[0, 0, 0]	n/a	FR1	2	R1060M
1579.102	1.6	808995	WORD	n/a	wordpools/wordpool_EN.txt	TOOTH	11	13	[0, 0, 0]	n/a	FR1	2	R1060M
1581.652	1.6	810270	WORD	n/a	wordpools/wordpool_EN.txt	PEAR	12	13	[0, 0, 0]	n/a	FR1	2	R1060M
1583.269	0.001	811079	DISTRACT_START	n/a	n/a	n/a	-999	13	[0, 0, 0]	n/a	FR1	2	R1060M
1583.27	0.016	811079	START	n/a	n/a	n/a	-999	13	[-999, -999, -999]	n/a	FR1	2	R1060M
1583.286	2.484	811087	PROB	2.451	n/a	n/a	-999	13	[1, 3, 7]	11.0	FR1	2	R1060M
1585.77	3.301	812329	PROB	3.272	n/a	n/a	-999	13	[4, 9, 9]	22.0	FR1	2	R1060M
1589.071	2.4	813980	PROB	2.371	n/a	n/a	-999	13	[6, 1, 3]	10.0	FR1	2	R1060M
1591.471	5.168	815180	PROB	5.139	n/a	n/a	-999	13	[9, 9, 4]	22.0	FR1	2	R1060M
1596.639	2.35	817764	PROB	2.323	n/a	n/a	-999	13	[5, 3, 5]	13.0	FR1	2	R1060M
1598.989	3.818	818939	PROB	3.797	n/a	n/a	-999	13	[7, 5, 8]	20.0	FR1	2	R1060M
1602.807	3.251	820848	PROB	3.251	n/a	n/a	-999	13	[5, 2, 9]	16.0	FR1	2	R1060M
1606.058	0.016	822473	STOP	n/a	n/a	n/a	-999	13	[-999, -999, -999]	n/a	FR1	2	R1060M
1606.074	1.168	822481	DISTRACT_END	n/a	n/a	n/a	-999	13	[0, 0, 0]	n/a	FR1	2	R1060M
1607.242	0.759	823065	REC_START	n/a	n/a	n/a	-999	13	[0, 0, 0]	n/a	FR1	2	R1060M
1608.001	0.967	823445	REC_WORD	0.759	n/a	ARK	-999	13	[0, 0, 0]	n/a	FR1	2	R1060M
1608.968	1.607	823928	REC_WORD	1.726	n/a	BEAR	-999	13	[0, 0, 0]	n/a	FR1	2	R1060M
1610.575	1.493	824732	REC_WORD	3.333	n/a	TEETH	-999	13	[0, 0, 0]	n/a	FR1	2	R1060M
1612.068	2.65	825478	REC_WORD	4.826	n/a	TOOTH	-999	13	[0, 0, 0]	n/a	FR1	2	R1060M
1614.718	22.533	826803	REC_WORD	7.476	n/a	SAW	-999	13	[0, 0, 0]	n/a	FR1	2	R1060M
1637.251	1.613	838069	REC_END	n/a	n/a	n/a	-999	13	[0, 0, 0]	n/a	FR1	2	R1060M
1638.864	0.0	838876	TRIAL	n/a	n/a	n/a	-999	14	[0, 0, 0]	n/a	FR1	2	R1060M
1638.864	10.0	838876	COUNTDOWN_START	n/a	n/a	n/a	-999	14	[0, 0, 0]	n/a	FR1	2	R1060M
1649.292	0.007	844090	COUNTDOWN_END	n/a	n/a	n/a	-999	14	[0, 0, 0]	n/a	FR1	2	R1060M
1649.299	1.6	844093	ORIENT	n/a	n/a	n/a	-999	14	[0, 0, 0]	n/a	FR1	2	R1060M
1651.766	1.6	845327	WORD	n/a	wordpools/wordpool_EN.txt	BRANCH	1	14	[0, 0, 0]	n/a	FR1	2	R1060M
1654.316	1.6	846602	WORD	n/a	wordpools/wordpool_EN.txt	LAMB	2	14	[0, 0, 0]	n/a	FR1	2	R1060M
1656.784	1.6	847836	WORD	n/a	wordpools/wordpool_EN.txt	AXE	3	14	[0, 0, 0]	n/a	FR1	2	R1060M
1659.218	1.6	849053	WORD	n/a	wordpools/wordpool_EN.txt	WORLD	4	14	[0, 0, 0]	n/a	FR1	2	R1060M
1661.801	1.6	850344	WORD	n/a	wordpools/wordpool_EN.txt	SPEAR	5	14	[0, 0, 0]	n/a	FR1	2	R1060M
1664.218	1.6	851553	WORD	n/a	wordpools/wordpool_EN.txt	PEARL	6	14	[0, 0, 0]	n/a	FR1	2	R1060M
1666.769	1.6	852828	WORD	n/a	wordpools/wordpool_EN.txt	BLOOM	7	14	[0, 0, 0]	n/a	FR1	2	R1060M
1669.303	1.6	854095	WORD	n/a	wordpools/wordpool_EN.txt	THREAD	8	14	[0, 0, 0]	n/a	FR1	2	R1060M
1671.77	1.6	855329	WORD	n/a	wordpools/wordpool_EN.txt	MOTH	9	14	[0, 0, 0]	n/a	FR1	2	R1060M
1674.17	1.6	856529	WORD	n/a	wordpools/wordpool_EN.txt	PLANT	10	14	[0, 0, 0]	n/a	FR1	2	R1060M
1676.737	1.6	857812	WORD	n/a	wordpools/wordpool_EN.txt	FOOD	11	14	[0, 0, 0]	n/a	FR1	2	R1060M
1679.188	1.6	859038	WORD	n/a	wordpools/wordpool_EN.txt	BEE	12	14	[0, 0, 0]	n/a	FR1	2	R1060M
1680.805	0.001	859846	DISTRACT_START	n/a	n/a	n/a	-999	14	[0, 0, 0]	n/a	FR1	2	R1060M
1680.806	0.016	859847	START	n/a	n/a	n/a	-999	14	[-999, -999, -999]	n/a	FR1	2	R1060M
1680.822	2.849	859855	PROB	2.82	n/a	n/a	-999	14	[1, 8, 1]	10.0	FR1	2	R1060M
1683.671	2.368	861279	PROB	2.339	n/a	n/a	-999	14	[9, 2, 9]	20.0	FR1	2	R1060M
1686.039	3.184	862463	PROB	3.155	n/a	n/a	-999	14	[9, 2, 4]	15.0	FR1	2	R1060M
1689.223	2.267	864055	PROB	2.235	n/a	n/a	-999	14	[2, 3, 7]	12.0	FR1	2	R1060M
1691.49	3.801	865189	PROB	3.768	n/a	n/a	-999	14	[3, 6, 7]	16.0	FR1	2	R1060M
1695.291	2.684	867089	PROB	2.655	n/a	n/a	-999	14	[7, 1, 8]	16.0	FR1	2	R1060M
1697.975	4.187	868431	PROB	4.187	n/a	n/a	-999	14	[8, 4, 6]	18.0	FR1	2	R1060M
1702.162	0.014	870525	STOP	n/a	n/a	n/a	-999	14	[-999, -999, -999]	n/a	FR1	2	R1060M
1702.176	1.167	870532	DISTRACT_END	n/a	n/a	n/a	-999	14	[0, 0, 0]	n/a	FR1	2	R1060M
1703.343	0.987	871115	REC_START	n/a	n/a	n/a	-999	14	[0, 0, 0]	n/a	FR1	2	R1060M
1704.33	1.064	871609	REC_WORD	0.987	n/a	PEARL	-999	14	[0, 0, 0]	n/a	FR1	2	R1060M
1705.394	1.204	872141	REC_WORD	2.051	n/a	BLOOM	-999	14	[0, 0, 0]	n/a	FR1	2	R1060M
1706.598	1.388	872743	REC_WORD	3.255	n/a	THREAD	-999	14	[0, 0, 0]	n/a	FR1	2	R1060M
1707.986	1.598	873437	REC_WORD	4.643	n/a	MOTH	-999	14	[0, 0, 0]	n/a	FR1	2	R1060M
1709.584	9.384	874236	REC_WORD	6.241	n/a	PLANT	-999	14	[0, 0, 0]	n/a	FR1	2	R1060M
1718.968	14.389	878928	REC_WORD	15.625	n/a	SEAL	-999	14	[0, 0, 0]	n/a	FR1	2	R1060M
1733.357	1.575	886122	REC_END	n/a	n/a	n/a	-999	14	[0, 0, 0]	n/a	FR1	2	R1060M
1734.932	0.0	886909	TRIAL	n/a	n/a	n/a	-999	15	[0, 0, 0]	n/a	FR1	2	R1060M
1734.932	10.0	886909	COUNTDOWN_START	n/a	n/a	n/a	-999	15	[0, 0, 0]	n/a	FR1	2	R1060M
1745.36	0.007	892123	COUNTDOWN_END	n/a	n/a	n/a	-999	15	[0, 0, 0]	n/a	FR1	2	R1060M
1745.367	1.6	892127	ORIENT	n/a	n/a	n/a	-999	15	[0, 0, 0]	n/a	FR1	2	R1060M
1747.918	1.6	893402	WORD	n/a	wordpools/wordpool_EN.txt	SUIT	1	15	[0, 0, 0]	n/a	FR1	2	R1060M
1750.502	1.6	894694	WORD	n/a	wordpools/wordpool_EN.txt	SEED	2	15	[0, 0, 0]	n/a	FR1	2	R1060M
1752.886	1.6	895886	WORD	n/a	wordpools/wordpool_EN.txt	MAIL	3	15	[0, 0, 0]	n/a	FR1	2	R1060M
1755.336	1.6	897111	WORD	n/a	wordpools/wordpool_EN.txt	FLOOR	4	15	[0, 0, 0]	n/a	FR1	2	R1060M
1757.837	1.6	898362	WORD	n/a	wordpools/wordpool_EN.txt	VASE	5	15	[0, 0, 0]	n/a	FR1	2	R1060M
1760.454	1.6	899670	WORD	n/a	wordpools/wordpool_EN.txt	DESK	6	15	[0, 0, 0]	n/a	FR1	2	R1060M
1762.921	1.6	900904	WORD	n/a	wordpools/wordpool_EN.txt	CONE	7	15	[0, 0, 0]	n/a	FR1	2	R1060M
1765.488	1.6	902187	WORD	n/a	wordpools/wordpool_EN.txt	ELF	8	15	[0, 0, 0]	n/a	FR1	2	R1060M
1767.955	1.6	903421	WORD	n/a	wordpools/wordpool_EN.txt	SNOW	9	15	[0, 0, 0]	n/a	FR1	2	R1060M
1770.456	1.6	904671	WORD	n/a	wordpools/wordpool_EN.txt	POLE	10	15	[0, 0, 0]	n/a	FR1	2	R1060M
1773.056	1.6	905971	WORD	n/a	wordpools/wordpool_EN.txt	ICE	11	15	[0, 0, 0]	n/a	FR1	2	R1060M
1775.457	1.6	907172	WORD	n/a	wordpools/wordpool_EN.txt	JUICE	12	15	[0, 0, 0]	n/a	FR1	2	R1060M
1777.074	0.0	907980	DISTRACT_START	n/a	n/a	n/a	-999	15	[0, 0, 0]	n/a	FR1	2	R1060M
1777.074	0.016	907980	START	n/a	n/a	n/a	-999	15	[-999, -999, -999]	n/a	FR1	2	R1060M
1777.09	2.917	907988	PROB	2.896	n/a	n/a	-999	15	[7, 4, 3]	14.0	FR1	2	R1060M
1780.007	5.418	909447	PROB	5.387	n/a	n/a	-999	15	[3, 6, 2]	11.0	FR1	2	R1060M
1785.425	5.25	912156	PROB	5.224	n/a	n/a	-999	15	[8, 9, 7]	24.0	FR1	2	R1060M
1790.675	7.046	914781	PROB	7.046	n/a	n/a	-999	15	[6, 7, 6]	19.0	FR1	2	R1060M
1797.721	0.006	918304	STOP	n/a	n/a	n/a	-999	15	[-999, -999, -999]	n/a	FR1	2	R1060M
1797.727	1.201	918307	DISTRACT_END	n/a	n/a	n/a	-999	15	[0, 0, 0]	n/a	FR1	2	R1060M
1798.928	1.438	918907	REC_START	n/a	n/a	n/a	-999	15	[0, 0, 0]	n/a	FR1	2	R1060M
1800.366	0.495	919626	REC_WORD	1.438	n/a	ELF	-999	15	[0, 0, 0]	n/a	FR1	2	R1060M
1800.861	0.654	919874	REC_WORD_VV	1.933	n/a	<>	-999	15	[0, 0, 0]	n/a	FR1	2	R1060M
1801.515	0.928	920201	REC_WORD	2.587	n/a	ELF	-999	15	[0, 0, 0]	n/a	FR1	2	R1060M
1802.443	1.834	920665	REC_WORD	3.515	n/a	SNOW	-999	15	[0, 0, 0]	n/a	FR1	2	R1060M
1804.277	2.596	921582	REC_WORD	5.349	n/a	POLE	-999	15	[0, 0, 0]	n/a	FR1	2	R1060M
1806.873	2.642	922880	REC_WORD	7.945	n/a	SEED	-999	15	[0, 0, 0]	n/a	FR1	2	R1060M
1809.515	10.303	924201	REC_WORD	10.587	n/a	JUICE	-999	15	[0, 0, 0]	n/a	FR1	2	R1060M
1819.818	9.122	929352	REC_WORD	20.89	n/a	NOSE	-999	15	[0, 0, 0]	n/a	FR1	2	R1060M
1828.94	1.627	933913	REC_END	n/a	n/a	n/a	-999	15	[0, 0, 0]	n/a	FR1	2	R1060M
1830.567	0.0	934727	TRIAL	n/a	n/a	n/a	-999	16	[0, 0, 0]	n/a	FR1	2	R1060M
1830.567	10.0	934727	COUNTDOWN_START	n/a	n/a	n/a	-999	16	[0, 0, 0]	n/a	FR1	2	R1060M
1840.995	0.008	939941	COUNTDOWN_END	n/a	n/a	n/a	-999	16	[0, 0, 0]	n/a	FR1	2	R1060M
1841.003	1.6	939945	ORIENT	n/a	n/a	n/a	-999	16	[0, 0, 0]	n/a	FR1	2	R1060M
1843.47	1.6	941178	WORD	n/a	wordpools/wordpool_EN.txt	STRING	1	16	[0, 0, 0]	n/a	FR1	2	R1060M
1846.087	1.6	942486	WORD	n/a	wordpools/wordpool_EN.txt	CLOUD	2	16	[0, 0, 0]	n/a	FR1	2	R1060M
1848.587	1.6	943736	WORD	n/a	wordpools/wordpool_EN.txt	HOOK	3	16	[0, 0, 0]	n/a	FR1	2	R1060M
1850.971	1.6	944928	WORD	n/a	wordpools/wordpool_EN.txt	PEA	4	16	[0, 0, 0]	n/a	FR1	2	R1060M
1853.538	1.6	946212	WORD	n/a	wordpools/wordpool_EN.txt	TREE	5	16	[0, 0, 0]	n/a	FR1	2	R1060M
1856.072	1.6	947479	WORD	n/a	wordpools/wordpool_EN.txt	HEN	6	16	[0, 0, 0]	n/a	FR1	2	R1060M
1858.473	1.6	948679	WORD	n/a	wordpools/wordpool_EN.txt	OWL	7	16	[0, 0, 0]	n/a	FR1	2	R1060M
1860.94	1.6	949913	WORD	n/a	wordpools/wordpool_EN.txt	PIN	8	16	[0, 0, 0]	n/a	FR1	2	R1060M
1863.407	1.6	951146	WORD	n/a	wordpools/wordpool_EN.txt	PLANE	9	16	[0, 0, 0]	n/a	FR1	2	R1060M
1865.824	1.6	952355	WORD	n/a	wordpools/wordpool_EN.txt	SKY	10	16	[0, 0, 0]	n/a	FR1	2	R1060M
1868.208	1.6	953547	WORD	n/a	wordpools/wordpool_EN.txt	NEST	11	16	[0, 0, 0]	n/a	FR1	2	R1060M
1870.707	1.6	954796	WORD	n/a	wordpools/wordpool_EN.txt	SQUARE	12	16	[0, 0, 0]	n/a	FR1	2	R1060M
1872.308	0.001	955597	DISTRACT_START	n/a	n/a	n/a	-999	16	[0, 0, 0]	n/a	FR1	2	R1060M
1872.309	0.016	955597	START	n/a	n/a	n/a	-999	16	[-999, -999, -999]	n/a	FR1	2	R1060M
1872.325	5.151	955605	PROB	5.117	n/a	n/a	-999	16	[7, 9, 5]	21.0	FR1	2	R1060M
1877.476	2.534	958181	PROB	2.51	n/a	n/a	-999	16	[5, 6, 4]	15.0	FR1	2	R1060M
1880.01	3.351	959448	PROB	3.32	n/a	n/a	-999	16	[4, 7, 6]	17.0	FR1	2	R1060M
1883.361	2.534	961123	PROB	2.505	n/a	n/a	-999	16	[2, 9, 1]	12.0	FR1	2	R1060M
1885.895	2.45	962390	PROB	2.427	n/a	n/a	-999	16	[9, 6, 4]	19.0	FR1	2	R1060M
1888.345	3.551	963615	PROB	3.521	n/a	n/a	-999	16	[4, 8, 8]	20.0	FR1	2	R1060M
1891.896	4.642	965391	PROB	4.642	n/a	n/a	-999	16	[9, 2, 7]	18.0	FR1	2	R1060M
1896.538	0.009	967712	STOP	n/a	n/a	n/a	-999	16	[-999, -999, -999]	n/a	FR1	2	R1060M
1896.547	1.2	967716	DISTRACT_END	n/a	n/a	n/a	-999	16	[0, 0, 0]	n/a	FR1	2	R1060M
1897.747	1.049	968316	REC_START	n/a	n/a	n/a	-999	16	[0, 0, 0]	n/a	FR1	2	R1060M
1898.796	1.166	968841	REC_WORD	1.049	n/a	HEN	-999	16	[0, 0, 0]	n/a	FR1	2	R1060M
1899.962	2.233	969424	REC_WORD	2.215	n/a	PLANE	-999	16	[0, 0, 0]	n/a	FR1	2	R1060M
1902.195	1.54	970540	REC_WORD	4.448	n/a	SKY	-999	16	[0, 0, 0]	n/a	FR1	2	R1060M
1903.735	5.563	971310	REC_WORD	5.988	n/a	HOOK	-999	16	[0, 0, 0]	n/a	FR1	2	R1060M
1909.298	5.508	974092	REC_WORD	11.551	n/a	OWL	-999	16	[0, 0, 0]	n/a	FR1	2	R1060M
1914.806	12.951	976846	REC_WORD	17.059	n/a	NEST	-999	16	[0, 0, 0]	n/a	FR1	2	R1060M
1927.757	1.863	983321	REC_END	n/a	n/a	n/a	-999	16	[0, 0, 0]	n/a	FR1	2	R1060M
1929.62	10.0	984253	COUNTDOWN_START	n/a	n/a	n/a	-999	17	[0, 0, 0]	n/a	FR1	2	R1060M
1929.62	10.428	984253	TRIAL	n/a	n/a	n/a	-999	17	[0, 0, 0]	n/a	FR1	2	R1060M
1940.048	0.007	989467	COUNTDOWN_END	n/a	n/a	n/a	-999	17	[0, 0, 0]	n/a	FR1	2	R1060M
1940.055	1.6	989470	ORIENT	n/a	n/a	n/a	-999	17	[0, 0, 0]	n/a	FR1	2	R1060M
1942.556	1.6	990721	WORD	n/a	wordpools/wordpool_EN.txt	DOG	1	17	[0, 0, 0]	n/a	FR1	2	R1060M
1945.173	1.6	992029	WORD	n/a	wordpools/wordpool_EN.txt	LEG	2	17	[0, 0, 0]	n/a	FR1	2	R1060M
1947.573	1.6	993229	WORD	n/a	wordpools/wordpool_EN.txt	STOOL	3	17	[0, 0, 0]	n/a	FR1	2	R1060M
1950.14	1.6	994513	WORD	n/a	wordpools/wordpool_EN.txt	PLATE	4	17	[0, 0, 0]	n/a	FR1	2	R1060M
1952.524	1.6	995705	WORD	n/a	wordpools/wordpool_EN.txt	CHALK	5	17	[0, 0, 0]	n/a	FR1	2	R1060M
1955.141	1.6	997013	WORD	n/a	wordpools/wordpool_EN.txt	TRAY	6	17	[0, 0, 0]	n/a	FR1	2	R1060M
1957.575	1.6	998230	WORD	n/a	wordpools/wordpool_EN.txt	WOOD	7	17	[0, 0, 0]	n/a	FR1	2	R1060M
1960.092	1.6	999488	WORD	n/a	wordpools/wordpool_EN.txt	GLASS	8	17	[0, 0, 0]	n/a	FR1	2	R1060M
1962.559	1.6	1000722	WORD	n/a	wordpools/wordpool_EN.txt	STAIR	9	17	[0, 0, 0]	n/a	FR1	2	R1060M
1965.177	1.6	1002031	WORD	n/a	wordpools/wordpool_EN.txt	CROWN	10	17	[0, 0, 0]	n/a	FR1	2	R1060M
1967.56	1.6	1003222	WORD	n/a	wordpools/wordpool_EN.txt	SLUSH	11	17	[0, 0, 0]	n/a	FR1	2	R1060M
1970.044	1.6	1004464	WORD	n/a	wordpools/wordpool_EN.txt	SOCK	12	17	[0, 0, 0]	n/a	FR1	2	R1060M
1971.66	0.001	1005272	DISTRACT_START	n/a	n/a	n/a	-999	17	[0, 0, 0]	n/a	FR1	2	R1060M
1971.661	0.016	1005273	START	n/a	n/a	n/a	-999	17	[-999, -999, -999]	n/a	FR1	2	R1060M
1971.677	2.951	1005281	PROB	2.925	n/a	n/a	-999	17	[5, 4, 6]	15.0	FR1	2	R1060M
1974.628	2.534	1006756	PROB	2.51	n/a	n/a	-999	17	[1, 7, 5]	13.0	FR1	2	R1060M
1977.162	2.117	1008023	PROB	2.088	n/a	n/a	-999	17	[1, 3, 2]	6.0	FR1	2	R1060M
1979.279	3.45	1009082	PROB	3.418	n/a	n/a	-999	17	[4, 8, 4]	16.0	FR1	2	R1060M
1982.729	2.135	1010807	PROB	2.113	n/a	n/a	-999	17	[2, 2, 1]	5.0	FR1	2	R1060M
1984.864	2.484	1011874	PROB	2.45	n/a	n/a	-999	17	[1, 6, 7]	14.0	FR1	2	R1060M
1987.348	2.382	1013116	PROB	2.349	n/a	n/a	-999	17	[1, 2, 5]	8.0	FR1	2	R1060M
1989.73	2.48	1014307	PROB	2.48	n/a	n/a	-999	17	[9, 9, 2]	20.0	FR1	2	R1060M
1992.21	0.005	1015547	STOP	n/a	n/a	n/a	-999	17	[-999, -999, -999]	n/a	FR1	2	R1060M
1992.215	1.034	1015550	DISTRACT_END	n/a	n/a	n/a	-999	17	[0, 0, 0]	n/a	FR1	2	R1060M
1993.249	0.955	1016067	REC_START	n/a	n/a	n/a	-999	17	[0, 0, 0]	n/a	FR1	2	R1060M
1994.204	1.312	1016544	REC_WORD	0.955	n/a	CLAY	-999	17	[0, 0, 0]	n/a	FR1	2	R1060M
1995.516	1.412	1017200	REC_WORD	2.267	n/a	WOOD	-999	17	[0, 0, 0]	n/a	FR1	2	R1060M
1996.928	7.885	1017906	REC_WORD	3.679	n/a	GLASS	-999	17	[0, 0, 0]	n/a	FR1	2	R1060M
2004.813	18.448	1021849	REC_WORD	11.564	n/a	SUN	-999	17	[0, 0, 0]	n/a	FR1	2	R1060M
2023.261	1.844	1031073	REC_END	n/a	n/a	n/a	-999	17	[0, 0, 0]	n/a	FR1	2	R1060M
2025.105	0.0	1031995	TRIAL	n/a	n/a	n/a	-999	18	[0, 0, 0]	n/a	FR1	2	R1060M
2025.105	10.0	1031995	COUNTDOWN_START	n/a	n/a	n/a	-999	18	[0, 0, 0]	n/a	FR1	2	R1060M
2035.533	0.007	1037209	COUNTDOWN_END	n/a	n/a	n/a	-999	18	[0, 0, 0]	n/a	FR1	2	R1060M
2035.54	1.6	1037212	ORIENT	n/a	n/a	n/a	-999	18	[0, 0, 0]	n/a	FR1	2	R1060M
2038.041	1.6	1038463	WORD	n/a	wordpools/wordpool_EN.txt	JET	1	18	[0, 0, 0]	n/a	FR1	2	R1060M
2040.525	1.6	1039705	WORD	n/a	wordpools/wordpool_EN.txt	FILM	2	18	[0, 0, 0]	n/a	FR1	2	R1060M
2042.942	1.6	1040913	WORD	n/a	wordpools/wordpool_EN.txt	MOLE	3	18	[0, 0, 0]	n/a	FR1	2	R1060M
2045.375	1.6	1042130	WORD	n/a	wordpools/wordpool_EN.txt	BOAT	4	18	[0, 0, 0]	n/a	FR1	2	R1060M
2047.909	1.6	1043397	WORD	n/a	wordpools/wordpool_EN.txt	INK	5	18	[0, 0, 0]	n/a	FR1	2	R1060M
2050.36	1.6	1044622	WORD	n/a	wordpools/wordpool_EN.txt	BOMB	6	18	[0, 0, 0]	n/a	FR1	2	R1060M
2052.743	1.6	1045814	WORD	n/a	wordpools/wordpool_EN.txt	KITE	7	18	[0, 0, 0]	n/a	FR1	2	R1060M
2055.227	1.6	1047056	WORD	n/a	wordpools/wordpool_EN.txt	SOAP	8	18	[0, 0, 0]	n/a	FR1	2	R1060M
2057.677	1.6	1048281	WORD	n/a	wordpools/wordpool_EN.txt	SPARK	9	18	[0, 0, 0]	n/a	FR1	2	R1060M
2060.045	1.6	1049465	WORD	n/a	wordpools/wordpool_EN.txt	WHEEL	10	18	[0, 0, 0]	n/a	FR1	2	R1060M
2062.629	1.6	1050757	WORD	n/a	wordpools/wordpool_EN.txt	POND	11	18	[0, 0, 0]	n/a	FR1	2	R1060M
2065.096	1.6	1051990	WORD	n/a	wordpools/wordpool_EN.txt	NET	12	18	[0, 0, 0]	n/a	FR1	2	R1060M
2066.712	0.0	1052798	DISTRACT_START	n/a	n/a	n/a	-999	18	[0, 0, 0]	n/a	FR1	2	R1060M
2066.712	0.017	1052798	START	n/a	n/a	n/a	-999	18	[-999, -999, -999]	n/a	FR1	2	R1060M
2066.729	3.051	1052806	PROB	3.016	n/a	n/a	-999	18	[4, 3, 3]	10.0	FR1	2	R1060M
2069.78	2.717	1054332	PROB	2.686	n/a	n/a	-999	18	[1, 3, 6]	10.0	FR1	2	R1060M
2072.497	2.484	1055690	PROB	2.457	n/a	n/a	-999	18	[1, 6, 4]	11.0	FR1	2	R1060M
2074.981	7.502	1056932	PROB	7.477	n/a	n/a	-999	18	[5, 7, 6]	18.0	FR1	2	R1060M
2082.483	2.067	1060683	PROB	2.031	n/a	n/a	-999	18	[7, 1, 1]	9.0	FR1	2	R1060M
2084.55	3.092	1061717	PROB	3.092	n/a	n/a	-999	18	[1, 5, 2]	8.0	FR1	2	R1060M
2087.642	0.007	1063263	STOP	n/a	n/a	n/a	-999	18	[-999, -999, -999]	n/a	FR1	2	R1060M
2087.649	1.119	1063266	DISTRACT_END	n/a	n/a	n/a	-999	18	[0, 0, 0]	n/a	FR1	2	R1060M
2088.768	0.734	1063826	REC_START	n/a	n/a	n/a	-999	18	[0, 0, 0]	n/a	FR1	2	R1060M
2089.502	1.034	1064193	REC_WORD	0.734	n/a	BOMB	-999	18	[0, 0, 0]	n/a	FR1	2	R1060M
2090.536	1.653	1064710	REC_WORD	1.768	n/a	KITE	-999	18	[0, 0, 0]	n/a	FR1	2	R1060M
2092.189	5.979	1065536	REC_WORD	3.421	n/a	SOAP	-999	18	[0, 0, 0]	n/a	FR1	2	R1060M
2098.168	12.877	1068526	REC_WORD	9.4	n/a	JET	-999	18	[0, 0, 0]	n/a	FR1	2	R1060M
2111.045	7.732	1074964	REC_WORD	22.277	n/a	SPILL	-999	18	[0, 0, 0]	n/a	FR1	2	R1060M
2118.777	1.98	1078830	REC_END	n/a	n/a	n/a	-999	18	[0, 0, 0]	n/a	FR1	2	R1060M
2120.757	0.0	1079820	TRIAL	n/a	n/a	n/a	-999	19	[0, 0, 0]	n/a	FR1	2	R1060M
2120.757	10.0	1079820	COUNTDOWN_START	n/a	n/a	n/a	-999	19	[0, 0, 0]	n/a	FR1	2	R1060M
2131.185	0.007	1085034	COUNTDOWN_END	n/a	n/a	n/a	-999	19	[0, 0, 0]	n/a	FR1	2	R1060M
2131.192	1.6	1085038	ORIENT	n/a	n/a	n/a	-999	19	[0, 0, 0]	n/a	FR1	2	R1060M
2133.725	1.6	1086304	WORD	n/a	wordpools/wordpool_EN.txt	DITCH	1	19	[0, 0, 0]	n/a	FR1	2	R1060M
2136.326	1.6	1087605	WORD	n/a	wordpools/wordpool_EN.txt	CHIN	2	19	[0, 0, 0]	n/a	FR1	2	R1060M
2138.91	1.6	1088897	WORD	n/a	wordpools/wordpool_EN.txt	BRIDGE	3	19	[0, 0, 0]	n/a	FR1	2	R1060M
2141.511	1.6	1090197	WORD	n/a	wordpools/wordpool_EN.txt	TRUCK	4	19	[0, 0, 0]	n/a	FR1	2	R1060M
2144.011	1.6	1091447	WORD	n/a	wordpools/wordpool_EN.txt	SMOKE	5	19	[0, 0, 0]	n/a	FR1	2	R1060M
2146.562	1.6	1092723	WORD	n/a	wordpools/wordpool_EN.txt	STEAM	6	19	[0, 0, 0]	n/a	FR1	2	R1060M
2149.145	1.6	1094014	WORD	n/a	wordpools/wordpool_EN.txt	SLIME	7	19	[0, 0, 0]	n/a	FR1	2	R1060M
2151.712	1.6	1095298	WORD	n/a	wordpools/wordpool_EN.txt	SHOE	8	19	[0, 0, 0]	n/a	FR1	2	R1060M
2154.246	1.6	1096565	WORD	n/a	wordpools/wordpool_EN.txt	BUSH	9	19	[0, 0, 0]	n/a	FR1	2	R1060M
2156.847	1.6	1097865	WORD	n/a	wordpools/wordpool_EN.txt	BARN	10	19	[0, 0, 0]	n/a	FR1	2	R1060M
2159.397	1.6	1099140	WORD	n/a	wordpools/wordpool_EN.txt	ROAD	11	19	[0, 0, 0]	n/a	FR1	2	R1060M
2161.981	1.6	1100432	WORD	n/a	wordpools/wordpool_EN.txt	FORK	12	19	[0, 0, 0]	n/a	FR1	2	R1060M
2163.598	0.001	1101241	DISTRACT_START	n/a	n/a	n/a	-999	19	[0, 0, 0]	n/a	FR1	2	R1060M
2163.599	0.016	1101241	START	n/a	n/a	n/a	-999	19	[-999, -999, -999]	n/a	FR1	2	R1060M
2163.615	3.851	1101249	PROB	3.819	n/a	n/a	-999	19	[9, 8, 5]	22.0	FR1	2	R1060M
2167.466	6.183	1103175	PROB	6.152	n/a	n/a	-999	19	[2, 4, 9]	15.0	FR1	2	R1060M
2173.649	2.868	1106266	PROB	2.833	n/a	n/a	-999	19	[3, 3, 2]	8.0	FR1	2	R1060M
2176.517	2.317	1107700	PROB	2.285	n/a	n/a	-999	19	[2, 3, 1]	6.0	FR1	2	R1060M
2178.834	3.218	1108858	PROB	3.184	n/a	n/a	-999	19	[4, 3, 4]	11.0	FR1	2	R1060M
2182.052	3.806	1110467	PROB	3.806	n/a	n/a	-999	19	[3, 2, 9]	14.0	FR1	2	R1060M
2185.858	0.011	1112370	STOP	n/a	n/a	n/a	-999	19	[-999, -999, -999]	n/a	FR1	2	R1060M
2185.869	1.134	1112376	DISTRACT_END	n/a	n/a	n/a	-999	19	[0, 0, 0]	n/a	FR1	2	R1060M
2187.003	0.864	1112943	REC_START	n/a	n/a	n/a	-999	19	[0, 0, 0]	n/a	FR1	2	R1060M
2187.867	1.627	1113375	REC_WORD	0.864	n/a	BUSH	-999	19	[0, 0, 0]	n/a	FR1	2	R1060M
2189.494	2.305	1114188	REC_WORD	2.491	n/a	ROAD	-999	19	[0, 0, 0]	n/a	FR1	2	R1060M
2191.799	2.576	1115341	REC_WORD	4.796	n/a	BARN	-999	19	[0, 0, 0]	n/a	FR1	2	R1060M
2194.375	8.262	1116629	REC_WORD	7.372	n/a	SMOKE	-999	19	[0, 0, 0]	n/a	FR1	2	R1060M
2202.637	4.838	1120760	REC_WORD	15.634	n/a	DITCH	-999	19	[0, 0, 0]	n/a	FR1	2	R1060M
2207.475	9.54	1123179	REC_WORD	20.472	n/a	STEAM	-999	19	[0, 0, 0]	n/a	FR1	2	R1060M
2217.015	2.377	1127949	REC_END	n/a	n/a	n/a	-999	19	[0, 0, 0]	n/a	FR1	2	R1060M
2219.392	0.0	1129137	TRIAL	n/a	n/a	n/a	-999	20	[0, 0, 0]	n/a	FR1	2	R1060M
2219.392	10.0	1129137	COUNTDOWN_START	n/a	n/a	n/a	-999	20	[0, 0, 0]	n/a	FR1	2	R1060M
2229.82	0.008	1134351	COUNTDOWN_END	n/a	n/a	n/a	-999	20	[0, 0, 0]	n/a	FR1	2	R1060M
2229.828	1.6	1134355	ORIENT	n/a	n/a	n/a	-999	20	[0, 0, 0]	n/a	FR1	2	R1060M
2232.378	1.6	1135630	WORD	n/a	wordpools/wordpool_EN.txt	KEY	1	20	[0, 0, 0]	n/a	FR1	2	R1060M
2234.945	1.6	1136914	WORD	n/a	wordpools/wordpool_EN.txt	MAP	2	20	[0, 0, 0]	n/a	FR1	2	R1060M
2237.496	1.6	1138189	WORD	n/a	wordpools/wordpool_EN.txt	CLOWN	3	20	[0, 0, 0]	n/a	FR1	2	R1060M
2239.963	1.6	1139423	WORD	n/a	wordpools/wordpool_EN.txt	FRUIT	4	20	[0, 0, 0]	n/a	FR1	2	R1060M
2242.43	1.6	1140656	WORD	n/a	wordpools/wordpool_EN.txt	FISH	5	20	[0, 0, 0]	n/a	FR1	2	R1060M
2244.964	1.6	1141923	WORD	n/a	wordpools/wordpool_EN.txt	CHIEF	6	20	[0, 0, 0]	n/a	FR1	2	R1060M
2247.564	1.6	1143223	WORD	n/a	wordpools/wordpool_EN.txt	MILK	7	20	[0, 0, 0]	n/a	FR1	2	R1060M
2249.965	1.6	1144424	WORD	n/a	wordpools/wordpool_EN.txt	SHARK	8	20	[0, 0, 0]	n/a	FR1	2	R1060M
2252.582	1.6	1145732	WORD	n/a	wordpools/wordpool_EN.txt	FORT	9	20	[0, 0, 0]	n/a	FR1	2	R1060M
2255.033	1.6	1146958	WORD	n/a	wordpools/wordpool_EN.txt	SEA	10	20	[0, 0, 0]	n/a	FR1	2	R1060M
2257.433	1.6	1148158	WORD	n/a	wordpools/wordpool_EN.txt	JUDGE	11	20	[0, 0, 0]	n/a	FR1	2	R1060M
2260.034	1.6	1149458	WORD	n/a	wordpools/wordpool_EN.txt	PASTE	12	20	[0, 0, 0]	n/a	FR1	2	R1060M
2261.649	0.001	1150266	DISTRACT_START	n/a	n/a	n/a	-999	20	[0, 0, 0]	n/a	FR1	2	R1060M
2261.65	0.016	1150266	START	n/a	n/a	n/a	-999	20	[-999, -999, -999]	n/a	FR1	2	R1060M
2261.666	2.685	1150274	PROB	2.664	n/a	n/a	-999	20	[6, 1, 6]	13.0	FR1	2	R1060M
2264.351	2.767	1151617	PROB	2.747	n/a	n/a	-999	20	[6, 5, 4]	15.0	FR1	2	R1060M
2267.118	3.001	1153000	PROB	2.972	n/a	n/a	-999	20	[6, 2, 6]	14.0	FR1	2	R1060M
2270.119	4.201	1154501	PROB	4.179	n/a	n/a	-999	20	[9, 5, 6]	20.0	FR1	2	R1060M
2274.32	2.883	1156601	PROB	2.858	n/a	n/a	-999	20	[9, 5, 2]	16.0	FR1	2	R1060M
2277.203	3.251	1158043	PROB	3.223	n/a	n/a	-999	20	[5, 7, 3]	15.0	FR1	2	R1060M
2280.454	2.716	1159668	PROB	2.716	n/a	n/a	-999	20	[4, 5, 2]	11.0	FR1	2	R1060M
2283.17	0.018	1161026	STOP	n/a	n/a	n/a	-999	20	[-999, -999, -999]	n/a	FR1	2	R1060M
2283.188	1.084	1161035	DISTRACT_END	n/a	n/a	n/a	-999	20	[0, 0, 0]	n/a	FR1	2	R1060M
2284.272	0.725	1161577	REC_START	n/a	n/a	n/a	-999	20	[0, 0, 0]	n/a	FR1	2	R1060M
2284.997	0.998	1161940	REC_WORD	0.725	n/a	MILK	-999	20	[0, 0, 0]	n/a	FR1	2	R1060M
2285.995	1.839	1162439	REC_WORD	1.723	n/a	SHARK	-999	20	[0, 0, 0]	n/a	FR1	2	R1060M
2287.834	1.762	1163358	REC_WORD	3.562	n/a	FORK	-999	20	[0, 0, 0]	n/a	FR1	2	R1060M
2289.596	8.545	1164239	REC_WORD	5.324	n/a	SEA	-999	20	[0, 0, 0]	n/a	FR1	2	R1060M
2298.141	15.508	1168511	REC_WORD	13.869	n/a	CUP	-999	20	[0, 0, 0]	n/a	FR1	2	R1060M
2313.649	0.636	1176265	REC_WORD	29.377	n/a	MUD	-999	20	[0, 0, 0]	n/a	FR1	2	R1060M
2314.285	77.124	1176583	REC_END	n/a	n/a	n/a	-999	20	[0, 0, 0]	n/a	FR1	2	R1060M
2391.409	0.0	1215145	TRIAL	n/a	n/a	n/a	-999	21	[0, 0, 0]	n/a	FR1	2	R1060M
2391.409	10.0	1215145	COUNTDOWN_START	n/a	n/a	n/a	-999	21	[0, 0, 0]	n/a	FR1	2	R1060M
2401.837	0.007	1220359	COUNTDOWN_END	n/a	n/a	n/a	-999	21	[0, 0, 0]	n/a	FR1	2	R1060M
2401.844	1.6	1220363	ORIENT	n/a	n/a	n/a	-999	21	[0, 0, 0]	n/a	FR1	2	R1060M
2404.378	1.6	1221629	WORD	n/a	wordpools/wordpool_EN.txt	STEM	1	21	[0, 0, 0]	n/a	FR1	2	R1060M
2406.928	1.6	1222904	WORD	n/a	wordpools/wordpool_EN.txt	WALL	2	21	[0, 0, 0]	n/a	FR1	2	R1060M
2409.362	1.6	1224121	WORD	n/a	wordpools/wordpool_EN.txt	GRASS	3	21	[0, 0, 0]	n/a	FR1	2	R1060M
2411.93	1.6	1225405	WORD	n/a	wordpools/wordpool_EN.txt	WEED	4	21	[0, 0, 0]	n/a	FR1	2	R1060M
2414.313	1.6	1226597	WORD	n/a	wordpools/wordpool_EN.txt	SPONGE	5	21	[0, 0, 0]	n/a	FR1	2	R1060M
2416.931	1.6	1227906	WORD	n/a	wordpools/wordpool_EN.txt	SHELL	6	21	[0, 0, 0]	n/a	FR1	2	R1060M
2419.431	1.6	1229156	WORD	n/a	wordpools/wordpool_EN.txt	COIN	7	21	[0, 0, 0]	n/a	FR1	2	R1060M
2422.031	1.6	1230456	WORD	n/a	wordpools/wordpool_EN.txt	MAT	8	21	[0, 0, 0]	n/a	FR1	2	R1060M
2424.499	1.6	1231690	WORD	n/a	wordpools/wordpool_EN.txt	LEAF	9	21	[0, 0, 0]	n/a	FR1	2	R1060M
2427.116	1.6	1232998	WORD	n/a	wordpools/wordpool_EN.txt	ROOT	10	21	[0, 0, 0]	n/a	FR1	2	R1060M
2429.533	1.6	1234207	WORD	n/a	wordpools/wordpool_EN.txt	SNAIL	11	21	[0, 0, 0]	n/a	FR1	2	R1060M
2432.067	1.6	1235474	WORD	n/a	wordpools/wordpool_EN.txt	WORM	12	21	[0, 0, 0]	n/a	FR1	2	R1060M
2433.683	0.001	1236282	DISTRACT_START	n/a	n/a	n/a	-999	21	[0, 0, 0]	n/a	FR1	2	R1060M
2433.684	0.015	1236282	START	n/a	n/a	n/a	-999	21	[-999, -999, -999]	n/a	FR1	2	R1060M
2433.699	3.185	1236290	PROB	3.151	n/a	n/a	-999	21	[5, 7, 7]	19.0	FR1	2	R1060M
2436.884	2.534	1237882	PROB	2.502	n/a	n/a	-999	21	[5, 8, 7]	20.0	FR1	2	R1060M
2439.418	2.434	1239149	PROB	2.4	n/a	n/a	-999	21	[3, 1, 3]	7.0	FR1	2	R1060M
2441.852	2.617	1240366	PROB	2.59	n/a	n/a	-999	21	[4, 4, 9]	17.0	FR1	2	R1060M
2444.469	3.467	1241675	PROB	3.437	n/a	n/a	-999	21	[8, 3, 4]	15.0	FR1	2	R1060M
2447.936	3.418	1243408	PROB	3.386	n/a	n/a	-999	21	[4, 6, 5]	15.0	FR1	2	R1060M
2451.354	5.24	1245117	PROB	5.24	n/a	n/a	-999	21	[9, 5, 8]	22.0	FR1	2	R1060M
2456.594	0.011	1247737	STOP	n/a	n/a	n/a	-999	21	[-999, -999, -999]	n/a	FR1	2	R1060M
2456.605	1.167	1247743	DISTRACT_END	n/a	n/a	n/a	-999	21	[0, 0, 0]	n/a	FR1	2	R1060M
2457.772	0.777	1248326	REC_START	n/a	n/a	n/a	-999	21	[0, 0, 0]	n/a	FR1	2	R1060M
2458.549	1.599	1248715	REC_WORD	0.777	n/a	MAT	-999	21	[0, 0, 0]	n/a	FR1	2	R1060M
2460.148	2.213	1249514	REC_WORD	2.376	n/a	LEAF	-999	21	[0, 0, 0]	n/a	FR1	2	R1060M
2462.361	1.542	1250621	REC_WORD	4.589	n/a	WOLF	-999	21	[0, 0, 0]	n/a	FR1	2	R1060M
2463.903	2.561	1251392	REC_WORD	6.131	n/a	SNAIL	-999	21	[0, 0, 0]	n/a	FR1	2	R1060M
2466.464	1.935	1252672	REC_WORD	8.692	n/a	SHELL	-999	21	[0, 0, 0]	n/a	FR1	2	R1060M
2468.399	9.134	1253640	REC_WORD	10.627	n/a	LEAF	-999	21	[0, 0, 0]	n/a	FR1	2	R1060M
2477.533	9.532	1258207	REC_WORD	19.761	n/a	ROOT	-999	21	[0, 0, 0]	n/a	FR1	2	R1060M
2487.065	0.719	1262973	REC_WORD	29.293	n/a	SEA	-999	21	[0, 0, 0]	n/a	FR1	2	R1060M
2487.784	2.861	1263332	REC_END	n/a	n/a	n/a	-999	21	[0, 0, 0]	n/a	FR1	2	R1060M
2490.645	0.0	1264763	TRIAL	n/a	n/a	n/a	-999	22	[0, 0, 0]	n/a	FR1	2	R1060M
2490.645	10.0	1264763	COUNTDOWN_START	n/a	n/a	n/a	-999	22	[0, 0, 0]	n/a	FR1	2	R1060M
2501.073	0.007	1269977	COUNTDOWN_END	n/a	n/a	n/a	-999	22	[0, 0, 0]	n/a	FR1	2	R1060M
2501.08	1.6	1269980	ORIENT	n/a	n/a	n/a	-999	22	[0, 0, 0]	n/a	FR1	2	R1060M
2503.614	1.6	1271247	WORD	n/a	wordpools/wordpool_EN.txt	BENCH	1	22	[0, 0, 0]	n/a	FR1	2	R1060M
2506.181	1.6	1272531	WORD	n/a	wordpools/wordpool_EN.txt	STRAW	2	22	[0, 0, 0]	n/a	FR1	2	R1060M
2508.565	1.6	1273723	WORD	n/a	wordpools/wordpool_EN.txt	YARD	3	22	[0, 0, 0]	n/a	FR1	2	R1060M
2511.165	1.6	1275023	WORD	n/a	wordpools/wordpool_EN.txt	FOOT	4	22	[0, 0, 0]	n/a	FR1	2	R1060M
2513.732	1.6	1276306	WORD	n/a	wordpools/wordpool_EN.txt	SHIRT	5	22	[0, 0, 0]	n/a	FR1	2	R1060M
2516.166	1.6	1277523	WORD	n/a	wordpools/wordpool_EN.txt	BOWL	6	22	[0, 0, 0]	n/a	FR1	2	R1060M
2518.6	1.6	1278740	WORD	n/a	wordpools/wordpool_EN.txt	FROG	7	22	[0, 0, 0]	n/a	FR1	2	R1060M
2521.034	1.6	1279957	WORD	n/a	wordpools/wordpool_EN.txt	ROSE	8	22	[0, 0, 0]	n/a	FR1	2	R1060M
2523.434	1.6	1281157	WORD	n/a	wordpools/wordpool_EN.txt	DOOR	9	22	[0, 0, 0]	n/a	FR1	2	R1060M
2526.052	1.6	1282466	WORD	n/a	wordpools/wordpool_EN.txt	BRUSH	10	22	[0, 0, 0]	n/a	FR1	2	R1060M
2528.684	1.6	1283782	WORD	n/a	wordpools/wordpool_EN.txt	CHAIR	11	22	[0, 0, 0]	n/a	FR1	2	R1060M
2531.236	1.6	1285058	WORD	n/a	wordpools/wordpool_EN.txt	TIE	12	22	[0, 0, 0]	n/a	FR1	2	R1060M
2532.853	0.001	1285866	DISTRACT_START	n/a	n/a	n/a	-999	22	[0, 0, 0]	n/a	FR1	2	R1060M
2532.854	0.016	1285867	START	n/a	n/a	n/a	-999	22	[-999, -999, -999]	n/a	FR1	2	R1060M
2532.87	2.533	1285875	PROB	2.508	n/a	n/a	-999	22	[1, 7, 7]	15.0	FR1	2	R1060M
2535.403	3.034	1287141	PROB	2.999	n/a	n/a	-999	22	[2, 5, 7]	14.0	FR1	2	R1060M
2538.437	4.217	1288658	PROB	4.197	n/a	n/a	-999	22	[8, 7, 5]	20.0	FR1	2	R1060M
2542.654	2.468	1290767	PROB	2.444	n/a	n/a	-999	22	[8, 4, 2]	14.0	FR1	2	R1060M
2545.122	3.101	1292001	PROB	3.08	n/a	n/a	-999	22	[9, 5, 6]	20.0	FR1	2	R1060M
2548.223	3.184	1293551	PROB	3.163	n/a	n/a	-999	22	[9, 8, 9]	26.0	FR1	2	R1060M
2551.407	2.675	1295143	PROB	2.675	n/a	n/a	-999	22	[6, 8, 3]	17.0	FR1	2	R1060M
2554.082	0.008	1296481	STOP	n/a	n/a	n/a	-999	22	[-999, -999, -999]	n/a	FR1	2	R1060M
2554.09	1.184	1296485	DISTRACT_END	n/a	n/a	n/a	-999	22	[0, 0, 0]	n/a	FR1	2	R1060M
2555.274	0.608	1297077	REC_START	n/a	n/a	n/a	-999	22	[0, 0, 0]	n/a	FR1	2	R1060M
2555.882	1.534	1297381	REC_WORD	0.608	n/a	FROG	-999	22	[0, 0, 0]	n/a	FR1	2	R1060M
2557.416	1.527	1298148	REC_WORD	2.142	n/a	ROSE	-999	22	[0, 0, 0]	n/a	FR1	2	R1060M
2558.943	1.985	1298911	REC_WORD	3.669	n/a	DOOR	-999	22	[0, 0, 0]	n/a	FR1	2	R1060M
2560.928	1.971	1299904	REC_WORD	5.654	n/a	BRUSH	-999	22	[0, 0, 0]	n/a	FR1	2	R1060M
2562.899	5.036	1300889	REC_WORD	7.625	n/a	CHAIR	-999	22	[0, 0, 0]	n/a	FR1	2	R1060M
2567.935	6.279	1303407	REC_WORD	12.661	n/a	FENCE	-999	22	[0, 0, 0]	n/a	FR1	2	R1060M
2574.214	11.073	1306547	REC_WORD	18.94	n/a	YARD	-999	22	[0, 0, 0]	n/a	FR1	2	R1060M
2585.287	1.76	1312083	REC_END	n/a	n/a	n/a	-999	22	[0, 0, 0]	n/a	FR1	2	R1060M
2587.047	10.0	1312963	COUNTDOWN_START	n/a	n/a	n/a	-999	23	[0, 0, 0]	n/a	FR1	2	R1060M
2587.047	10.428	1312963	TRIAL	n/a	n/a	n/a	-999	23	[0, 0, 0]	n/a	FR1	2	R1060M
2597.475	0.007	1318177	COUNTDOWN_END	n/a	n/a	n/a	-999	23	[0, 0, 0]	n/a	FR1	2	R1060M
2597.482	1.6	1318181	ORIENT	n/a	n/a	n/a	-999	23	[0, 0, 0]	n/a	FR1	2	R1060M
2599.949	1.6	1319414	WORD	n/a	wordpools/wordpool_EN.txt	SCHOOL	1	23	[0, 0, 0]	n/a	FR1	2	R1060M
2602.333	1.6	1320606	WORD	n/a	wordpools/wordpool_EN.txt	DRESS	2	23	[0, 0, 0]	n/a	FR1	2	R1060M
2604.8	1.6	1321840	WORD	n/a	wordpools/wordpool_EN.txt	HORN	3	23	[0, 0, 0]	n/a	FR1	2	R1060M
2607.334	1.6	1323107	WORD	n/a	wordpools/wordpool_EN.txt	ROOF	4	23	[0, 0, 0]	n/a	FR1	2	R1060M
2609.918	1.6	1324399	WORD	n/a	wordpools/wordpool_EN.txt	STREET	5	23	[0, 0, 0]	n/a	FR1	2	R1060M
2612.518	1.6	1325699	WORD	n/a	wordpools/wordpool_EN.txt	SLEEVE	6	23	[0, 0, 0]	n/a	FR1	2	R1060M
2614.935	1.6	1326907	WORD	n/a	wordpools/wordpool_EN.txt	DART	7	23	[0, 0, 0]	n/a	FR1	2	R1060M
2617.569	1.6	1328224	WORD	n/a	wordpools/wordpool_EN.txt	THUMB	8	23	[0, 0, 0]	n/a	FR1	2	R1060M
2620.17	1.6	1329525	WORD	n/a	wordpools/wordpool_EN.txt	PEN	9	23	[0, 0, 0]	n/a	FR1	2	R1060M
2622.669	1.6	1330774	WORD	n/a	wordpools/wordpool_EN.txt	VEST	10	23	[0, 0, 0]	n/a	FR1	2	R1060M
2625.187	1.6	1332033	WORD	n/a	wordpools/wordpool_EN.txt	STICK	11	23	[0, 0, 0]	n/a	FR1	2	R1060M
2627.67	1.6	1333274	WORD	n/a	wordpools/wordpool_EN.txt	PURSE	12	23	[0, 0, 0]	n/a	FR1	2	R1060M
2629.271	0.001	1334075	DISTRACT_START	n/a	n/a	n/a	-999	23	[0, 0, 0]	n/a	FR1	2	R1060M
2629.272	0.016	1334075	START	n/a	n/a	n/a	-999	23	[-999, -999, -999]	n/a	FR1	2	R1060M
2629.288	3.45	1334083	PROB	3.426	n/a	n/a	-999	23	[7, 5, 6]	18.0	FR1	2	R1060M
2632.738	3.934	1335808	PROB	3.911	n/a	n/a	-999	23	[4, 7, 1]	12.0	FR1	2	R1060M
2636.672	3.918	1337775	PROB	3.89	n/a	n/a	-999	23	[5, 7, 3]	15.0	FR1	2	R1060M
2640.59	2.868	1339734	PROB	2.844	n/a	n/a	-999	23	[7, 1, 9]	17.0	FR1	2	R1060M
2643.458	6.184	1341168	PROB	6.184	n/a	n/a	-999	23	[9, 4, 2]	15.0	FR1	2	R1060M
2649.642	0.016	1344260	STOP	n/a	n/a	n/a	-999	23	[-999, -999, -999]	n/a	FR1	2	R1060M
2649.658	1.169	1344268	DISTRACT_END	n/a	n/a	n/a	-999	23	[0, 0, 0]	n/a	FR1	2	R1060M
2650.827	0.526	1344853	REC_START	n/a	n/a	n/a	-999	23	[0, 0, 0]	n/a	FR1	2	R1060M
2651.353	2.204	1345116	REC_WORD	0.526	n/a	SLEEVE	-999	23	[0, 0, 0]	n/a	FR1	2	R1060M
2653.557	4.404	1346218	REC_WORD	2.73	n/a	DART	-999	23	[0, 0, 0]	n/a	FR1	2	R1060M
2657.961	4.738	1348420	REC_WORD	7.134	n/a	THUMB	-999	23	[0, 0, 0]	n/a	FR1	2	R1060M
2662.699	9.685	1350789	REC_WORD	11.872	n/a	VEST	-999	23	[0, 0, 0]	n/a	FR1	2	R1060M
2672.384	8.453	1355631	REC_WORD	21.557	n/a	YARD	-999	23	[0, 0, 0]	n/a	FR1	2	R1060M
2680.837	2.894	1359858	REC_END	n/a	n/a	n/a	-999	23	[0, 0, 0]	n/a	FR1	2	R1060M
2683.731	0.0	1361305	TRIAL	n/a	n/a	n/a	-999	24	[0, 0, 0]	n/a	FR1	2	R1060M
2683.731	10.0	1361305	COUNTDOWN_START	n/a	n/a	n/a	-999	24	[0, 0, 0]	n/a	FR1	2	R1060M
2694.159	0.008	1366519	COUNTDOWN_END	n/a	n/a	n/a	-999	24	[0, 0, 0]	n/a	FR1	2	R1060M
2694.167	1.6	1366523	ORIENT	n/a	n/a	n/a	-999	24	[0, 0, 0]	n/a	FR1	2	R1060M
2696.667	1.6	1367773	WORD	n/a	wordpools/wordpool_EN.txt	SHEET	1	24	[0, 0, 0]	n/a	FR1	2	R1060M
2699.202	1.6	1369040	WORD	n/a	wordpools/wordpool_EN.txt	STAR	2	24	[0, 0, 0]	n/a	FR1	2	R1060M
2701.786	1.6	1370332	WORD	n/a	wordpools/wordpool_EN.txt	WOLF	3	24	[0, 0, 0]	n/a	FR1	2	R1060M
2704.369	1.6	1371624	WORD	n/a	wordpools/wordpool_EN.txt	HORSE	4	24	[0, 0, 0]	n/a	FR1	2	R1060M
2706.903	1.6	1372891	WORD	n/a	wordpools/wordpool_EN.txt	TRASH	5	24	[0, 0, 0]	n/a	FR1	2	R1060M
2709.287	1.6	1374083	WORD	n/a	wordpools/wordpool_EN.txt	CORD	6	24	[0, 0, 0]	n/a	FR1	2	R1060M
2711.904	1.6	1375391	WORD	n/a	wordpools/wordpool_EN.txt	ANT	7	24	[0, 0, 0]	n/a	FR1	2	R1060M
2714.371	1.6	1376625	WORD	n/a	wordpools/wordpool_EN.txt	BOOK	8	24	[0, 0, 0]	n/a	FR1	2	R1060M
2716.888	1.6	1377883	WORD	n/a	wordpools/wordpool_EN.txt	TOAD	9	24	[0, 0, 0]	n/a	FR1	2	R1060M
2719.456	1.6	1379167	WORD	n/a	wordpools/wordpool_EN.txt	CASH	10	24	[0, 0, 0]	n/a	FR1	2	R1060M
2722.006	1.6	1380442	WORD	n/a	wordpools/wordpool_EN.txt	RIB	11	24	[0, 0, 0]	n/a	FR1	2	R1060M
2724.59	1.6	1381734	WORD	n/a	wordpools/wordpool_EN.txt	EGG	12	24	[0, 0, 0]	n/a	FR1	2	R1060M
2726.207	0.001	1382543	DISTRACT_START	n/a	n/a	n/a	-999	24	[0, 0, 0]	n/a	FR1	2	R1060M
2726.208	0.016	1382543	START	n/a	n/a	n/a	-999	24	[-999, -999, -999]	n/a	FR1	2	R1060M
2726.224	3.083	1382551	PROB	3.05	n/a	n/a	-999	24	[8, 5, 8]	21.0	FR1	2	R1060M
2729.307	3.251	1384093	PROB	3.231	n/a	n/a	-999	24	[7, 5, 2]	14.0	FR1	2	R1060M
2732.558	2.784	1385718	PROB	2.756	n/a	n/a	-999	24	[1, 2, 8]	11.0	FR1	2	R1060M
2735.342	9.085	1387110	PROB	9.061	n/a	n/a	-999	24	[9, 9, 9]	27.0	FR1	2	R1060M
2744.427	4.711	1391652	PROB	4.711	n/a	n/a	-999	24	[9, 7, 9]	25.0	FR1	2	R1060M
2749.138	0.007	1394008	STOP	n/a	n/a	n/a	-999	24	[-999, -999, -999]	n/a	FR1	2	R1060M
2749.145	1.05	1394011	DISTRACT_END	n/a	n/a	n/a	-999	24	[0, 0, 0]	n/a	FR1	2	R1060M
2750.195	1.29	1394536	REC_START	n/a	n/a	n/a	-999	24	[0, 0, 0]	n/a	FR1	2	R1060M
2751.485	1.443	1395181	REC_WORD	1.29	n/a	ANT	-999	24	[0, 0, 0]	n/a	FR1	2	R1060M
2752.928	1.922	1395903	REC_WORD	2.733	n/a	BOOK	-999	24	[0, 0, 0]	n/a	FR1	2	R1060M
2754.85	8.778	1396864	REC_WORD	4.655	n/a	TOAD	-999	24	[0, 0, 0]	n/a	FR1	2	R1060M
2763.628	16.586	1401253	REC_WORD	13.433	n/a	RASH	-999	24	[0, 0, 0]	n/a	FR1	2	R1060M
2780.214	2.22	1409546	REC_END	n/a	n/a	n/a	-999	24	[0, 0, 0]	n/a	FR1	2	R1060M
2782.434	10.0	1410656	COUNTDOWN_START	n/a	n/a	n/a	-999	25	[0, 0, 0]	n/a	FR1	2	R1060M
2782.435	10.427	1410656	TRIAL	n/a	n/a	n/a	-999	25	[0, 0, 0]	n/a	FR1	2	R1060M
2792.862	0.008	1415870	COUNTDOWN_END	n/a	n/a	n/a	-999	25	[0, 0, 0]	n/a	FR1	2	R1060M
2792.87	1.6	1415874	ORIENT	n/a	n/a	n/a	-999	25	[0, 0, 0]	n/a	FR1	2	R1060M
2795.47	1.6	1417174	WORD	n/a	wordpools/wordpool_EN.txt	BADGE	1	25	[0, 0, 0]	n/a	FR1	2	R1060M
2797.937	1.6	1418407	WORD	n/a	wordpools/wordpool_EN.txt	BAND	2	25	[0, 0, 0]	n/a	FR1	2	R1060M
2800.521	1.6	1419699	WORD	n/a	wordpools/wordpool_EN.txt	DOLL	3	25	[0, 0, 0]	n/a	FR1	2	R1060M
2803.022	1.6	1420950	WORD	n/a	wordpools/wordpool_EN.txt	HOSE	4	25	[0, 0, 0]	n/a	FR1	2	R1060M
2805.572	1.6	1422225	WORD	n/a	wordpools/wordpool_EN.txt	PANTS	5	25	[0, 0, 0]	n/a	FR1	2	R1060M
2807.973	1.6	1423425	WORD	n/a	wordpools/wordpool_EN.txt	ROOM	6	25	[0, 0, 0]	n/a	FR1	2	R1060M
2810.457	1.6	1424667	WORD	n/a	wordpools/wordpool_EN.txt	RUG	7	25	[0, 0, 0]	n/a	FR1	2	R1060M
2812.924	1.6	1425901	WORD	n/a	wordpools/wordpool_EN.txt	HOOF	8	25	[0, 0, 0]	n/a	FR1	2	R1060M
2815.358	1.6	1427118	WORD	n/a	wordpools/wordpool_EN.txt	WAVE	9	25	[0, 0, 0]	n/a	FR1	2	R1060M
2817.891	1.6	1428384	WORD	n/a	wordpools/wordpool_EN.txt	HILL	10	25	[0, 0, 0]	n/a	FR1	2	R1060M
2820.275	1.6	1429576	WORD	n/a	wordpools/wordpool_EN.txt	SHIELD	11	25	[0, 0, 0]	n/a	FR1	2	R1060M
2822.759	1.6	1430818	WORD	n/a	wordpools/wordpool_EN.txt	LAKE	12	25	[0, 0, 0]	n/a	FR1	2	R1060M
2824.376	0.001	1431627	DISTRACT_START	n/a	n/a	n/a	-999	25	[0, 0, 0]	n/a	FR1	2	R1060M
2824.377	0.016	1431627	START	n/a	n/a	n/a	-999	25	[-999, -999, -999]	n/a	FR1	2	R1060M
2824.393	3.017	1431635	PROB	2.993	n/a	n/a	-999	25	[3, 7, 4]	14.0	FR1	2	R1060M
2827.41	2.717	1433144	PROB	2.688	n/a	n/a	-999	25	[2, 3, 4]	9.0	FR1	2	R1060M
2830.127	3.501	1434502	PROB	3.475	n/a	n/a	-999	25	[8, 9, 4]	21.0	FR1	2	R1060M
2833.628	5.267	1436253	PROB	5.246	n/a	n/a	-999	25	[3, 4, 9]	13.0	FR1	2	R1060M
2838.895	2.901	1438886	PROB	2.875	n/a	n/a	-999	25	[7, 1, 6]	16.0	FR1	2	R1060M
2841.796	2.83	1440337	PROB	2.83	n/a	n/a	-999	25	[4, 7, 2]	13.0	FR1	2	R1060M
2844.626	0.004	1441752	STOP	n/a	n/a	n/a	-999	25	[-999, -999, -999]	n/a	FR1	2	R1060M
2844.63	1.099	1441754	DISTRACT_END	n/a	n/a	n/a	-999	25	[0, 0, 0]	n/a	FR1	2	R1060M
2845.729	1.134	1442303	REC_START	n/a	n/a	n/a	-999	25	[0, 0, 0]	n/a	FR1	2	R1060M
2846.863	1.267	1442870	REC_WORD	1.134	n/a	WAVE	-999	25	[0, 0, 0]	n/a	FR1	2	R1060M
2848.13	1.833	1443504	REC_WORD	2.401	n/a	HILL	-999	25	[0, 0, 0]	n/a	FR1	2	R1060M
2849.963	2.645	1444420	REC_WORD	4.234	n/a	SHIELD	-999	25	[0, 0, 0]	n/a	FR1	2	R1060M
2852.608	14.499	1445742	REC_WORD	6.879	n/a	LAKE	-999	25	[0, 0, 0]	n/a	FR1	2	R1060M
2867.107	8.632	1452992	REC_WORD	21.378	n/a	ANT	-999	25	[0, 0, 0]	n/a	FR1	2	R1060M
2875.739	7.449	1457308	REC_END	n/a	n/a	n/a	-999	25	[0, 0, 0]	n/a	FR1	2	R1060M
2883.188	0.0	1461032	SESS_END	n/a	n/a	n/a	-999	25	[0, 0, 0]	n/a	FR1	2	R1060M
