onset	duration	sample	trial_type	response_time	stim_file	item_name	serialpos	list	test	answer	experiment	session	subject
0.0	14.579	180960	SESS_START	n/a	n/a	n/a	-999	-999	[0, 0, 0]	n/a	FR1	1	R1075J
14.579	10.0	195539	COUNTDOWN_START	n/a	n/a	n/a	-999	-999	[0, 0, 0]	n/a	FR1	1	R1075J
25.007	3.723	205967	COUNTDOWN_END	n/a	n/a	n/a	-999	-999	[0, 0, 0]	n/a	FR1	1	R1075J
28.73	1.6	209690	PRACTICE_WORD	n/a	n/a	WATCH	1	-1	[0, 0, 0]	n/a	FR1	1	R1075J
31.298	1.6	212258	PRACTICE_WORD	n/a	n/a	RING	2	-1	[0, 0, 0]	n/a	FR1	1	R1075J
33.781	1.6	214741	PRACTICE_WORD	n/a	n/a	RHINO	3	-1	[0, 0, 0]	n/a	FR1	1	R1075J
36.315	1.6	217275	PRACTICE_WORD	n/a	n/a	WAGON	4	-1	[0, 0, 0]	n/a	FR1	1	R1075J
38.898	1.6	219858	PRACTICE_WORD	n/a	n/a	ATTIC	5	-1	[0, 0, 0]	n/a	FR1	1	R1075J
41.283	1.6	222243	PRACTICE_WORD	n/a	n/a	BEAM	6	-1	[0, 0, 0]	n/a	FR1	1	R1075J
43.665	1.6	224625	PRACTICE_WORD	n/a	n/a	TONGUE	7	-1	[0, 0, 0]	n/a	FR1	1	R1075J
46.066	1.6	227026	PRACTICE_WORD	n/a	n/a	CHEST	8	-1	[0, 0, 0]	n/a	FR1	1	R1075J
48.632	1.6	229592	PRACTICE_WORD	n/a	n/a	CAMEL	9	-1	[0, 0, 0]	n/a	FR1	1	R1075J
51.234	1.6	232194	PRACTICE_WORD	n/a	n/a	IRON	10	-1	[0, 0, 0]	n/a	FR1	1	R1075J
53.666	1.6	234626	PRACTICE_WORD	n/a	n/a	COTTON	11	-1	[0, 0, 0]	n/a	FR1	1	R1075J
56.05	1.6	237010	PRACTICE_WORD	n/a	n/a	FLOOD	12	-1	[0, 0, 0]	n/a	FR1	1	R1075J
57.667	0.001	238627	PRACTICE_DISTRACT_START	n/a	n/a	n/a	-999	-1	[0, 0, 0]	n/a	FR1	1	R1075J
57.668	0.016	238628	START	n/a	n/a	n/a	-999	-1	[-999, -999, -999]	n/a	FR1	1	R1075J
57.684	5.3	238644	PROB	5.264	n/a	n/a	-999	-1	[3, 5, 8]	16.0	FR1	1	R1075J
62.984	4.385	243944	PROB	4.349	n/a	n/a	-999	-1	[3, 4, 7]	14.0	FR1	1	R1075J
67.369	4.266	248329	PROB	4.243	n/a	n/a	-999	-1	[6, 4, 1]	11.0	FR1	1	R1075J
71.635	3.885	252595	PROB	3.85	n/a	n/a	-999	-1	[5, 4, 7]	16.0	FR1	1	R1075J
75.52	5.613	256480	PROB	5.613	n/a	n/a	-999	-1	[7, 9, 6]	22.0	FR1	1	R1075J
81.133	0.004	262093	STOP	n/a	n/a	n/a	-999	-1	[-999, -999, -999]	n/a	FR1	1	R1075J
81.137	0.652	262097	PRACTICE_DISTRACT_END	n/a	n/a	n/a	-999	-1	[0, 0, 0]	n/a	FR1	1	R1075J
81.789	30.516	262749	PRACTICE_REC_START	n/a	n/a	n/a	-999	-1	[0, 0, 0]	n/a	FR1	1	R1075J
112.305	9.487	293265	PRACTICE_REC_END	n/a	n/a	n/a	-999	-1	[0, 0, 0]	n/a	FR1	1	R1075J
121.792	0.0	302752	TRIAL	n/a	n/a	n/a	-999	1	[0, 0, 0]	n/a	FR1	1	R1075J
121.792	10.0	302752	COUNTDOWN_START	n/a	n/a	n/a	-999	1	[0, 0, 0]	n/a	FR1	1	R1075J
132.22	0.008	313180	COUNTDOWN_END	n/a	n/a	n/a	-999	1	[0, 0, 0]	n/a	FR1	1	R1075J
132.228	1.6	313188	ORIENT	n/a	n/a	n/a	-999	1	[0, 0, 0]	n/a	FR1	1	R1075J
134.727	1.6	315687	WORD	n/a	wordpools/wordpool_EN.txt	STEM	1	1	[0, 0, 0]	n/a	FR1	1	R1075J
137.245	1.6	318205	WORD	n/a	wordpools/wordpool_EN.txt	WALL	2	1	[0, 0, 0]	n/a	FR1	1	R1075J
139.811	1.6	320771	WORD	n/a	wordpools/wordpool_EN.txt	GRASS	3	1	[0, 0, 0]	n/a	FR1	1	R1075J
142.379	1.6	323339	WORD	n/a	wordpools/wordpool_EN.txt	WEED	4	1	[0, 0, 0]	n/a	FR1	1	R1075J
144.895	1.6	325855	WORD	n/a	wordpools/wordpool_EN.txt	SPONGE	5	1	[0, 0, 0]	n/a	FR1	1	R1075J
147.28	1.6	328240	WORD	n/a	wordpools/wordpool_EN.txt	SHELL	6	1	[0, 0, 0]	n/a	FR1	1	R1075J
149.896	1.6	330856	WORD	n/a	wordpools/wordpool_EN.txt	COIN	7	1	[0, 0, 0]	n/a	FR1	1	R1075J
152.347	1.6	333307	WORD	n/a	wordpools/wordpool_EN.txt	MAT	8	1	[0, 0, 0]	n/a	FR1	1	R1075J
154.946	1.6	335906	WORD	n/a	wordpools/wordpool_EN.txt	LEAF	9	1	[0, 0, 0]	n/a	FR1	1	R1075J
157.398	1.6	338358	WORD	n/a	wordpools/wordpool_EN.txt	ROOT	10	1	[0, 0, 0]	n/a	FR1	1	R1075J
159.83	1.6	340790	WORD	n/a	wordpools/wordpool_EN.txt	SNAIL	11	1	[0, 0, 0]	n/a	FR1	1	R1075J
162.298	1.6	343258	WORD	n/a	wordpools/wordpool_EN.txt	WORM	12	1	[0, 0, 0]	n/a	FR1	1	R1075J
163.914	0.001	344874	DISTRACT_START	n/a	n/a	n/a	-999	1	[0, 0, 0]	n/a	FR1	1	R1075J
163.915	0.015	344875	START	n/a	n/a	n/a	-999	1	[-999, -999, -999]	n/a	FR1	1	R1075J
163.93	3.918	344890	PROB	3.894	n/a	n/a	-999	1	[2, 4, 9]	15.0	FR1	1	R1075J
167.848	3.15	348808	PROB	3.12	n/a	n/a	-999	1	[5, 2, 6]	13.0	FR1	1	R1075J
170.998	2.634	351958	PROB	2.603	n/a	n/a	-999	1	[6, 3, 1]	10.0	FR1	1	R1075J
173.632	3.367	354592	PROB	3.336	n/a	n/a	-999	1	[1, 4, 3]	8.0	FR1	1	R1075J
176.999	2.967	357959	PROB	2.936	n/a	n/a	-999	1	[1, 2, 9]	12.0	FR1	1	R1075J
179.966	4.057	360926	PROB	4.057	n/a	n/a	-999	1	[6, 6, 2]	14.0	FR1	1	R1075J
184.023	0.01	364983	STOP	n/a	n/a	n/a	-999	1	[-999, -999, -999]	n/a	FR1	1	R1075J
184.033	1.218	364993	DISTRACT_END	n/a	n/a	n/a	-999	1	[0, 0, 0]	n/a	FR1	1	R1075J
185.251	20.524	366211	REC_START	n/a	n/a	n/a	-999	1	[0, 0, 0]	n/a	FR1	1	R1075J
205.775	2.863	386735	REC_WORD_VV	20.524	n/a	<>	-999	1	[0, 0, 0]	n/a	FR1	1	R1075J
208.638	3.49	389598	REC_WORD	23.387	n/a	BEAN	-999	1	[0, 0, 0]	n/a	FR1	1	R1075J
212.128	2.238	393088	REC_WORD	26.877	n/a	SPONGE	5	1	[0, 0, 0]	n/a	FR1	1	R1075J
214.366	0.896	395326	REC_WORD_VV	29.115	n/a	<>	-999	1	[0, 0, 0]	n/a	FR1	1	R1075J
215.262	2.326	396222	REC_END	n/a	n/a	n/a	-999	1	[0, 0, 0]	n/a	FR1	1	R1075J
217.588	10.0	398548	COUNTDOWN_START	n/a	n/a	n/a	-999	2	[0, 0, 0]	n/a	FR1	1	R1075J
217.589	10.427	398549	TRIAL	n/a	n/a	n/a	-999	2	[0, 0, 0]	n/a	FR1	1	R1075J
228.016	0.006	408976	COUNTDOWN_END	n/a	n/a	n/a	-999	2	[0, 0, 0]	n/a	FR1	1	R1075J
228.022	1.6	408982	ORIENT	n/a	n/a	n/a	-999	2	[0, 0, 0]	n/a	FR1	1	R1075J
230.457	1.6	411417	WORD	n/a	wordpools/wordpool_EN.txt	STEAK	1	2	[0, 0, 0]	n/a	FR1	1	R1075J
232.972	1.6	413932	WORD	n/a	wordpools/wordpool_EN.txt	EAR	2	2	[0, 0, 0]	n/a	FR1	1	R1075J
235.54	1.6	416500	WORD	n/a	wordpools/wordpool_EN.txt	MOUTH	3	2	[0, 0, 0]	n/a	FR1	1	R1075J
238.006	1.6	418966	WORD	n/a	wordpools/wordpool_EN.txt	CAGE	4	2	[0, 0, 0]	n/a	FR1	1	R1075J
240.441	1.6	421401	WORD	n/a	wordpools/wordpool_EN.txt	PHONE	5	2	[0, 0, 0]	n/a	FR1	1	R1075J
242.874	1.6	423834	WORD	n/a	wordpools/wordpool_EN.txt	MULE	6	2	[0, 0, 0]	n/a	FR1	1	R1075J
245.292	1.6	426252	WORD	n/a	wordpools/wordpool_EN.txt	ARK	7	2	[0, 0, 0]	n/a	FR1	1	R1075J
247.674	1.6	428634	WORD	n/a	wordpools/wordpool_EN.txt	BOY	8	2	[0, 0, 0]	n/a	FR1	1	R1075J
250.159	1.6	431119	WORD	n/a	wordpools/wordpool_EN.txt	TEETH	9	2	[0, 0, 0]	n/a	FR1	1	R1075J
252.642	1.6	433602	WORD	n/a	wordpools/wordpool_EN.txt	SEAL	10	2	[0, 0, 0]	n/a	FR1	1	R1075J
255.076	1.6	436036	WORD	n/a	wordpools/wordpool_EN.txt	TOOTH	11	2	[0, 0, 0]	n/a	FR1	1	R1075J
257.642	1.6	438602	WORD	n/a	wordpools/wordpool_EN.txt	PEAR	12	2	[0, 0, 0]	n/a	FR1	1	R1075J
259.243	0.001	440203	DISTRACT_START	n/a	n/a	n/a	-999	2	[0, 0, 0]	n/a	FR1	1	R1075J
259.244	0.016	440204	START	n/a	n/a	n/a	-999	2	[-999, -999, -999]	n/a	FR1	1	R1075J
259.26	3.834	440220	PROB	3.8	n/a	n/a	-999	2	[5, 5, 7]	17.0	FR1	1	R1075J
263.094	2.816	444054	PROB	2.782	n/a	n/a	-999	2	[3, 9, 8]	20.0	FR1	1	R1075J
265.91	2.951	446870	PROB	2.926	n/a	n/a	-999	2	[4, 8, 3]	15.0	FR1	1	R1075J
268.861	3.418	449821	PROB	3.384	n/a	n/a	-999	2	[8, 5, 1]	14.0	FR1	1	R1075J
272.279	2.967	453239	PROB	2.933	n/a	n/a	-999	2	[9, 7, 7]	23.0	FR1	1	R1075J
275.246	2.167	456206	PROB	2.134	n/a	n/a	-999	2	[9, 3, 1]	13.0	FR1	1	R1075J
277.413	5.119	458373	PROB	5.119	n/a	n/a	-999	2	[3, 3, 4]	10.0	FR1	1	R1075J
282.532	0.015	463492	STOP	n/a	n/a	n/a	-999	2	[-999, -999, -999]	n/a	FR1	1	R1075J
282.547	1.034	463507	DISTRACT_END	n/a	n/a	n/a	-999	2	[0, 0, 0]	n/a	FR1	1	R1075J
283.581	6.038	464541	REC_START	n/a	n/a	n/a	-999	2	[0, 0, 0]	n/a	FR1	1	R1075J
289.619	0.481	470579	REC_WORD	6.038	n/a	BOY	8	2	[0, 0, 0]	n/a	FR1	1	R1075J
290.1	2.711	471060	REC_WORD	6.519	n/a	SEAL	10	2	[0, 0, 0]	n/a	FR1	1	R1075J
292.811	3.108	473771	REC_WORD	9.23	n/a	TOOTH	11	2	[0, 0, 0]	n/a	FR1	1	R1075J
295.919	17.673	476879	REC_WORD_VV	12.338	n/a	<>	-999	2	[0, 0, 0]	n/a	FR1	1	R1075J
313.592	2.074	494552	REC_END	n/a	n/a	n/a	-999	2	[0, 0, 0]	n/a	FR1	1	R1075J
315.666	10.0	496626	COUNTDOWN_START	n/a	n/a	n/a	-999	3	[0, 0, 0]	n/a	FR1	1	R1075J
315.666	10.428	496626	TRIAL	n/a	n/a	n/a	-999	3	[0, 0, 0]	n/a	FR1	1	R1075J
326.094	0.008	507054	COUNTDOWN_END	n/a	n/a	n/a	-999	3	[0, 0, 0]	n/a	FR1	1	R1075J
326.102	1.6	507062	ORIENT	n/a	n/a	n/a	-999	3	[0, 0, 0]	n/a	FR1	1	R1075J
328.503	1.6	509463	WORD	n/a	wordpools/wordpool_EN.txt	TAIL	1	3	[0, 0, 0]	n/a	FR1	1	R1075J
331.002	1.6	511962	WORD	n/a	wordpools/wordpool_EN.txt	MOUSE	2	3	[0, 0, 0]	n/a	FR1	1	R1075J
333.519	1.6	514479	WORD	n/a	wordpools/wordpool_EN.txt	ROPE	3	3	[0, 0, 0]	n/a	FR1	1	R1075J
335.952	1.6	516912	WORD	n/a	wordpools/wordpool_EN.txt	WEB	4	3	[0, 0, 0]	n/a	FR1	1	R1075J
338.504	1.6	519464	WORD	n/a	wordpools/wordpool_EN.txt	MUG	5	3	[0, 0, 0]	n/a	FR1	1	R1075J
341.087	1.6	522047	WORD	n/a	wordpools/wordpool_EN.txt	SKUNK	6	3	[0, 0, 0]	n/a	FR1	1	R1075J
343.62	1.6	524580	WORD	n/a	wordpools/wordpool_EN.txt	SHEEP	7	3	[0, 0, 0]	n/a	FR1	1	R1075J
346.071	1.6	527031	WORD	n/a	wordpools/wordpool_EN.txt	PET	8	3	[0, 0, 0]	n/a	FR1	1	R1075J
348.488	1.6	529448	WORD	n/a	wordpools/wordpool_EN.txt	CLOTH	9	3	[0, 0, 0]	n/a	FR1	1	R1075J
351.089	1.6	532049	WORD	n/a	wordpools/wordpool_EN.txt	HAWK	10	3	[0, 0, 0]	n/a	FR1	1	R1075J
353.605	1.6	534565	WORD	n/a	wordpools/wordpool_EN.txt	FUDGE	11	3	[0, 0, 0]	n/a	FR1	1	R1075J
356.222	1.6	537182	WORD	n/a	wordpools/wordpool_EN.txt	CALF	12	3	[0, 0, 0]	n/a	FR1	1	R1075J
357.838	0.001	538798	DISTRACT_START	n/a	n/a	n/a	-999	3	[0, 0, 0]	n/a	FR1	1	R1075J
357.839	0.016	538799	START	n/a	n/a	n/a	-999	3	[-999, -999, -999]	n/a	FR1	1	R1075J
357.855	3.301	538815	PROB	3.266	n/a	n/a	-999	3	[2, 4, 8]	14.0	FR1	1	R1075J
361.156	2.65	542116	PROB	2.612	n/a	n/a	-999	3	[3, 7, 3]	13.0	FR1	1	R1075J
363.806	3.917	544766	PROB	3.882	n/a	n/a	-999	3	[8, 1, 7]	16.0	FR1	1	R1075J
367.723	2.685	548683	PROB	2.661	n/a	n/a	-999	3	[4, 4, 6]	14.0	FR1	1	R1075J
370.408	2.432	551368	PROB	2.408	n/a	n/a	-999	3	[7, 5, 5]	17.0	FR1	1	R1075J
372.84	2.468	553800	PROB	2.44	n/a	n/a	-999	3	[1, 6, 6]	13.0	FR1	1	R1075J
375.308	3.06	556268	PROB	3.06	n/a	n/a	-999	3	[2, 5, 4]	11.0	FR1	1	R1075J
378.368	0.007	559328	STOP	n/a	n/a	n/a	-999	3	[-999, -999, -999]	n/a	FR1	1	R1075J
378.375	1.218	559335	DISTRACT_END	n/a	n/a	n/a	-999	3	[0, 0, 0]	n/a	FR1	1	R1075J
379.593	1.591	560553	REC_START	n/a	n/a	n/a	-999	3	[0, 0, 0]	n/a	FR1	1	R1075J
381.184	1.665	562144	REC_WORD_VV	1.591	n/a	<>	-999	3	[0, 0, 0]	n/a	FR1	1	R1075J
382.849	8.23	563809	REC_WORD	3.256	n/a	WEB	4	3	[0, 0, 0]	n/a	FR1	1	R1075J
391.079	2.667	572039	REC_WORD	11.486	n/a	PET	8	3	[0, 0, 0]	n/a	FR1	1	R1075J
393.746	7.372	574706	REC_WORD	14.153	n/a	CALF	12	3	[0, 0, 0]	n/a	FR1	1	R1075J
401.118	3.503	582078	REC_WORD	21.525	n/a	BOY	-999	3	[0, 0, 0]	n/a	FR1	1	R1075J
404.621	0.576	585581	REC_WORD	25.028	n/a	MOUSE	2	3	[0, 0, 0]	n/a	FR1	1	R1075J
405.197	4.406	586157	REC_WORD	25.604	n/a	TAIL	1	3	[0, 0, 0]	n/a	FR1	1	R1075J
409.603	2.409	590563	REC_END	n/a	n/a	n/a	-999	3	[0, 0, 0]	n/a	FR1	1	R1075J
412.012	0.0	592972	TRIAL	n/a	n/a	n/a	-999	4	[0, 0, 0]	n/a	FR1	1	R1075J
412.012	10.0	592972	COUNTDOWN_START	n/a	n/a	n/a	-999	4	[0, 0, 0]	n/a	FR1	1	R1075J
422.44	0.008	603400	COUNTDOWN_END	n/a	n/a	n/a	-999	4	[0, 0, 0]	n/a	FR1	1	R1075J
422.448	1.6	603408	ORIENT	n/a	n/a	n/a	-999	4	[0, 0, 0]	n/a	FR1	1	R1075J
424.93	1.6	605890	WORD	n/a	wordpools/wordpool_EN.txt	BADGE	1	4	[0, 0, 0]	n/a	FR1	1	R1075J
427.298	1.6	608258	WORD	n/a	wordpools/wordpool_EN.txt	BAND	2	4	[0, 0, 0]	n/a	FR1	1	R1075J
429.731	1.6	610691	WORD	n/a	wordpools/wordpool_EN.txt	DOLL	3	4	[0, 0, 0]	n/a	FR1	1	R1075J
432.182	1.6	613142	WORD	n/a	wordpools/wordpool_EN.txt	HOSE	4	4	[0, 0, 0]	n/a	FR1	1	R1075J
434.731	1.6	615691	WORD	n/a	wordpools/wordpool_EN.txt	PANTS	5	4	[0, 0, 0]	n/a	FR1	1	R1075J
437.199	1.6	618159	WORD	n/a	wordpools/wordpool_EN.txt	ROOM	6	4	[0, 0, 0]	n/a	FR1	1	R1075J
439.665	1.6	620625	WORD	n/a	wordpools/wordpool_EN.txt	RUG	7	4	[0, 0, 0]	n/a	FR1	1	R1075J
442.117	1.6	623077	WORD	n/a	wordpools/wordpool_EN.txt	HOOF	8	4	[0, 0, 0]	n/a	FR1	1	R1075J
444.5	1.6	625460	WORD	n/a	wordpools/wordpool_EN.txt	WAVE	9	4	[0, 0, 0]	n/a	FR1	1	R1075J
446.9	1.6	627860	WORD	n/a	wordpools/wordpool_EN.txt	HILL	10	4	[0, 0, 0]	n/a	FR1	1	R1075J
449.484	1.6	630444	WORD	n/a	wordpools/wordpool_EN.txt	SHIELD	11	4	[0, 0, 0]	n/a	FR1	1	R1075J
452.0	1.6	632960	WORD	n/a	wordpools/wordpool_EN.txt	LAKE	12	4	[0, 0, 0]	n/a	FR1	1	R1075J
453.601	0.001	634561	DISTRACT_START	n/a	n/a	n/a	-999	4	[0, 0, 0]	n/a	FR1	1	R1075J
453.602	0.015	634562	START	n/a	n/a	n/a	-999	4	[-999, -999, -999]	n/a	FR1	1	R1075J
453.617	3.067	634577	PROB	3.043	n/a	n/a	-999	4	[3, 3, 6]	12.0	FR1	1	R1075J
456.684	4.151	637644	PROB	4.128	n/a	n/a	-999	4	[7, 9, 2]	18.0	FR1	1	R1075J
460.835	3.017	641795	PROB	2.992	n/a	n/a	-999	4	[7, 9, 3]	19.0	FR1	1	R1075J
463.852	2.518	644812	PROB	2.496	n/a	n/a	-999	4	[8, 5, 6]	19.0	FR1	1	R1075J
466.37	2.449	647330	PROB	2.418	n/a	n/a	-999	4	[3, 5, 3]	11.0	FR1	1	R1075J
468.819	4.067	649779	PROB	4.04	n/a	n/a	-999	4	[3, 9, 5]	17.0	FR1	1	R1075J
472.886	2.773	653846	PROB	2.773	n/a	n/a	-999	4	[5, 7, 5]	17.0	FR1	1	R1075J
475.659	0.011	656619	STOP	n/a	n/a	n/a	-999	4	[-999, -999, -999]	n/a	FR1	1	R1075J
475.67	1.2	656630	DISTRACT_END	n/a	n/a	n/a	-999	4	[0, 0, 0]	n/a	FR1	1	R1075J
476.87	3.719	657830	REC_START	n/a	n/a	n/a	-999	4	[0, 0, 0]	n/a	FR1	1	R1075J
480.589	17.894	661549	REC_WORD	3.719	n/a	HILL	10	4	[0, 0, 0]	n/a	FR1	1	R1075J
498.483	3.327	679443	REC_WORD	21.613	n/a	BADGE	1	4	[0, 0, 0]	n/a	FR1	1	R1075J
501.81	1.344	682770	REC_WORD_VV	24.94	n/a	<>	-999	4	[0, 0, 0]	n/a	FR1	1	R1075J
503.154	3.73	684114	REC_WORD	26.284	n/a	BOOK	-999	4	[0, 0, 0]	n/a	FR1	1	R1075J
506.884	1.89	687844	REC_END	n/a	n/a	n/a	-999	4	[0, 0, 0]	n/a	FR1	1	R1075J
508.774	0.0	689734	TRIAL	n/a	n/a	n/a	-999	5	[0, 0, 0]	n/a	FR1	1	R1075J
508.774	10.0	689734	COUNTDOWN_START	n/a	n/a	n/a	-999	5	[0, 0, 0]	n/a	FR1	1	R1075J
519.202	0.008	700162	COUNTDOWN_END	n/a	n/a	n/a	-999	5	[0, 0, 0]	n/a	FR1	1	R1075J
519.21	1.6	700170	ORIENT	n/a	n/a	n/a	-999	5	[0, 0, 0]	n/a	FR1	1	R1075J
521.594	1.6	702554	WORD	n/a	wordpools/wordpool_EN.txt	HAT	1	5	[0, 0, 0]	n/a	FR1	1	R1075J
524.177	1.6	705137	WORD	n/a	wordpools/wordpool_EN.txt	BATH	2	5	[0, 0, 0]	n/a	FR1	1	R1075J
526.71	1.6	707670	WORD	n/a	wordpools/wordpool_EN.txt	COW	3	5	[0, 0, 0]	n/a	FR1	1	R1075J
529.094	1.6	710054	WORD	n/a	wordpools/wordpool_EN.txt	GATE	4	5	[0, 0, 0]	n/a	FR1	1	R1075J
531.66	1.6	712620	WORD	n/a	wordpools/wordpool_EN.txt	MUD	5	5	[0, 0, 0]	n/a	FR1	1	R1075J
534.078	1.6	715038	WORD	n/a	wordpools/wordpool_EN.txt	DIME	6	5	[0, 0, 0]	n/a	FR1	1	R1075J
536.512	1.6	717472	WORD	n/a	wordpools/wordpool_EN.txt	MOOSE	7	5	[0, 0, 0]	n/a	FR1	1	R1075J
539.061	1.6	720021	WORD	n/a	wordpools/wordpool_EN.txt	SPRING	8	5	[0, 0, 0]	n/a	FR1	1	R1075J
541.628	1.6	722588	WORD	n/a	wordpools/wordpool_EN.txt	FACE	9	5	[0, 0, 0]	n/a	FR1	1	R1075J
544.096	1.6	725056	WORD	n/a	wordpools/wordpool_EN.txt	GOAT	10	5	[0, 0, 0]	n/a	FR1	1	R1075J
546.513	1.6	727473	WORD	n/a	wordpools/wordpool_EN.txt	SINK	11	5	[0, 0, 0]	n/a	FR1	1	R1075J
548.946	1.6	729906	WORD	n/a	wordpools/wordpool_EN.txt	TEA	12	5	[0, 0, 0]	n/a	FR1	1	R1075J
550.564	0.0	731524	DISTRACT_START	n/a	n/a	n/a	-999	5	[0, 0, 0]	n/a	FR1	1	R1075J
550.564	0.016	731524	START	n/a	n/a	n/a	-999	5	[-999, -999, -999]	n/a	FR1	1	R1075J
550.58	4.066	731540	PROB	4.043	n/a	n/a	-999	5	[7, 9, 6]	22.0	FR1	1	R1075J
554.646	3.401	735606	PROB	3.377	n/a	n/a	-999	5	[7, 9, 2]	18.0	FR1	1	R1075J
558.047	2.667	739007	PROB	2.64	n/a	n/a	-999	5	[6, 6, 8]	20.0	FR1	1	R1075J
560.714	3.134	741674	PROB	3.101	n/a	n/a	-999	5	[8, 6, 5]	19.0	FR1	1	R1075J
563.848	2.684	744808	PROB	2.648	n/a	n/a	-999	5	[6, 6, 9]	21.0	FR1	1	R1075J
566.532	2.801	747492	PROB	2.773	n/a	n/a	-999	5	[8, 5, 4]	17.0	FR1	1	R1075J
569.333	2.498	750293	PROB	2.498	n/a	n/a	-999	5	[9, 1, 7]	17.0	FR1	1	R1075J
571.831	0.018	752791	STOP	n/a	n/a	n/a	-999	5	[-999, -999, -999]	n/a	FR1	1	R1075J
571.849	1.084	752809	DISTRACT_END	n/a	n/a	n/a	-999	5	[0, 0, 0]	n/a	FR1	1	R1075J
572.933	4.326	753893	REC_START	n/a	n/a	n/a	-999	5	[0, 0, 0]	n/a	FR1	1	R1075J
577.259	0.455	758219	REC_WORD	4.326	n/a	MOOSE	7	5	[0, 0, 0]	n/a	FR1	1	R1075J
577.714	2.498	758674	REC_WORD	4.781	n/a	SPRING	8	5	[0, 0, 0]	n/a	FR1	1	R1075J
580.212	3.877	761172	REC_WORD	7.279	n/a	SINK	11	5	[0, 0, 0]	n/a	FR1	1	R1075J
584.089	1.951	765049	REC_WORD	11.156	n/a	NOSE	-999	5	[0, 0, 0]	n/a	FR1	1	R1075J
586.04	4.51	767000	REC_WORD_VV	13.107	n/a	<>	-999	5	[0, 0, 0]	n/a	FR1	1	R1075J
590.55	8.054	771510	REC_WORD	17.617	n/a	BATH	2	5	[0, 0, 0]	n/a	FR1	1	R1075J
598.604	4.338	779564	REC_WORD	25.671	n/a	COW	3	5	[0, 0, 0]	n/a	FR1	1	R1075J
602.942	1.944	783902	REC_END	n/a	n/a	n/a	-999	5	[0, 0, 0]	n/a	FR1	1	R1075J
604.886	10.0	785846	COUNTDOWN_START	n/a	n/a	n/a	-999	6	[0, 0, 0]	n/a	FR1	1	R1075J
604.886	10.428	785846	TRIAL	n/a	n/a	n/a	-999	6	[0, 0, 0]	n/a	FR1	1	R1075J
615.314	0.007	796274	COUNTDOWN_END	n/a	n/a	n/a	-999	6	[0, 0, 0]	n/a	FR1	1	R1075J
615.321	1.6	796281	ORIENT	n/a	n/a	n/a	-999	6	[0, 0, 0]	n/a	FR1	1	R1075J
617.804	1.6	798764	WORD	n/a	wordpools/wordpool_EN.txt	NOSE	1	6	[0, 0, 0]	n/a	FR1	1	R1075J
620.239	1.6	801199	WORD	n/a	wordpools/wordpool_EN.txt	RAKE	2	6	[0, 0, 0]	n/a	FR1	1	R1075J
622.655	1.6	803615	WORD	n/a	wordpools/wordpool_EN.txt	FOX	3	6	[0, 0, 0]	n/a	FR1	1	R1075J
625.09	1.6	806050	WORD	n/a	wordpools/wordpool_EN.txt	ZOO	4	6	[0, 0, 0]	n/a	FR1	1	R1075J
627.507	1.6	808467	WORD	n/a	wordpools/wordpool_EN.txt	SNAKE	5	6	[0, 0, 0]	n/a	FR1	1	R1075J
629.906	1.6	810866	WORD	n/a	wordpools/wordpool_EN.txt	FLEA	6	6	[0, 0, 0]	n/a	FR1	1	R1075J
632.291	1.6	813251	WORD	n/a	wordpools/wordpool_EN.txt	HOUSE	7	6	[0, 0, 0]	n/a	FR1	1	R1075J
634.856	1.6	815816	WORD	n/a	wordpools/wordpool_EN.txt	DUCK	8	6	[0, 0, 0]	n/a	FR1	1	R1075J
637.291	1.6	818251	WORD	n/a	wordpools/wordpool_EN.txt	PALM	9	6	[0, 0, 0]	n/a	FR1	1	R1075J
639.74	1.6	820700	WORD	n/a	wordpools/wordpool_EN.txt	CAKE	10	6	[0, 0, 0]	n/a	FR1	1	R1075J
642.175	1.6	823135	WORD	n/a	wordpools/wordpool_EN.txt	BLUSH	11	6	[0, 0, 0]	n/a	FR1	1	R1075J
644.691	1.6	825651	WORD	n/a	wordpools/wordpool_EN.txt	BIRD	12	6	[0, 0, 0]	n/a	FR1	1	R1075J
646.309	0.001	827269	DISTRACT_START	n/a	n/a	n/a	-999	6	[0, 0, 0]	n/a	FR1	1	R1075J
646.31	0.016	827270	START	n/a	n/a	n/a	-999	6	[-999, -999, -999]	n/a	FR1	1	R1075J
646.326	3.934	827286	PROB	3.911	n/a	n/a	-999	6	[5, 1, 8]	14.0	FR1	1	R1075J
650.26	2.432	831220	PROB	2.408	n/a	n/a	-999	6	[1, 6, 9]	16.0	FR1	1	R1075J
652.692	2.435	833652	PROB	2.4	n/a	n/a	-999	6	[6, 6, 5]	17.0	FR1	1	R1075J
655.127	2.967	836087	PROB	2.932	n/a	n/a	-999	6	[8, 8, 4]	20.0	FR1	1	R1075J
658.094	2.35	839054	PROB	2.318	n/a	n/a	-999	6	[8, 9, 4]	21.0	FR1	1	R1075J
660.444	3.216	841404	PROB	3.183	n/a	n/a	-999	6	[2, 1, 3]	6.0	FR1	1	R1075J
663.66	2.951	844620	PROB	2.951	n/a	n/a	-999	6	[5, 2, 6]	13.0	FR1	1	R1075J
666.611	0.016	847571	STOP	n/a	n/a	n/a	-999	6	[-999, -999, -999]	n/a	FR1	1	R1075J
666.627	1.167	847587	DISTRACT_END	n/a	n/a	n/a	-999	6	[0, 0, 0]	n/a	FR1	1	R1075J
667.794	3.001	848754	REC_START	n/a	n/a	n/a	-999	6	[0, 0, 0]	n/a	FR1	1	R1075J
670.795	9.185	851755	REC_WORD_VV	3.001	n/a	<>	-999	6	[0, 0, 0]	n/a	FR1	1	R1075J
679.98	6.88	860940	REC_WORD	12.186	n/a	HOUSE	7	6	[0, 0, 0]	n/a	FR1	1	R1075J
686.86	3.117	867820	REC_WORD	19.066	n/a	MOOSE	-999	6	[0, 0, 0]	n/a	FR1	1	R1075J
689.977	7.828	870937	REC_WORD	22.183	n/a	ROPE	-999	6	[0, 0, 0]	n/a	FR1	1	R1075J
697.805	2.177	878765	REC_END	n/a	n/a	n/a	-999	6	[0, 0, 0]	n/a	FR1	1	R1075J
699.982	0.0	880942	TRIAL	n/a	n/a	n/a	-999	7	[0, 0, 0]	n/a	FR1	1	R1075J
699.982	10.0	880942	COUNTDOWN_START	n/a	n/a	n/a	-999	7	[0, 0, 0]	n/a	FR1	1	R1075J
710.41	0.007	891370	COUNTDOWN_END	n/a	n/a	n/a	-999	7	[0, 0, 0]	n/a	FR1	1	R1075J
710.417	1.6	891377	ORIENT	n/a	n/a	n/a	-999	7	[0, 0, 0]	n/a	FR1	1	R1075J
712.933	1.6	893893	WORD	n/a	wordpools/wordpool_EN.txt	LAMP	1	7	[0, 0, 0]	n/a	FR1	1	R1075J
715.518	1.6	896478	WORD	n/a	wordpools/wordpool_EN.txt	BOOT	2	7	[0, 0, 0]	n/a	FR1	1	R1075J
718.017	1.6	898977	WORD	n/a	wordpools/wordpool_EN.txt	FOG	3	7	[0, 0, 0]	n/a	FR1	1	R1075J
720.602	1.6	901562	WORD	n/a	wordpools/wordpool_EN.txt	FLAG	4	7	[0, 0, 0]	n/a	FR1	1	R1075J
723.001	1.6	903961	WORD	n/a	wordpools/wordpool_EN.txt	NAIL	5	7	[0, 0, 0]	n/a	FR1	1	R1075J
725.585	1.6	906545	WORD	n/a	wordpools/wordpool_EN.txt	PARK	6	7	[0, 0, 0]	n/a	FR1	1	R1075J
728.186	1.6	909146	WORD	n/a	wordpools/wordpool_EN.txt	CLOCK	7	7	[0, 0, 0]	n/a	FR1	1	R1075J
730.702	1.6	911662	WORD	n/a	wordpools/wordpool_EN.txt	BED	8	7	[0, 0, 0]	n/a	FR1	1	R1075J
733.103	1.6	914063	WORD	n/a	wordpools/wordpool_EN.txt	SWORD	9	7	[0, 0, 0]	n/a	FR1	1	R1075J
735.57	1.6	916530	WORD	n/a	wordpools/wordpool_EN.txt	BAT	10	7	[0, 0, 0]	n/a	FR1	1	R1075J
738.003	1.6	918963	WORD	n/a	wordpools/wordpool_EN.txt	SKI	11	7	[0, 0, 0]	n/a	FR1	1	R1075J
740.571	1.6	921531	WORD	n/a	wordpools/wordpool_EN.txt	WHALE	12	7	[0, 0, 0]	n/a	FR1	1	R1075J
742.188	0.001	923148	DISTRACT_START	n/a	n/a	n/a	-999	7	[0, 0, 0]	n/a	FR1	1	R1075J
742.189	0.015	923149	START	n/a	n/a	n/a	-999	7	[-999, -999, -999]	n/a	FR1	1	R1075J
742.204	3.134	923164	PROB	3.108	n/a	n/a	-999	7	[9, 1, 5]	15.0	FR1	1	R1075J
745.338	2.683	926298	PROB	2.662	n/a	n/a	-999	7	[6, 1, 1]	8.0	FR1	1	R1075J
748.021	3.118	928981	PROB	3.084	n/a	n/a	-999	7	[7, 8, 6]	21.0	FR1	1	R1075J
751.139	3.532	932099	PROB	3.508	n/a	n/a	-999	7	[7, 5, 9]	21.0	FR1	1	R1075J
754.671	5.185	935631	PROB	5.16	n/a	n/a	-999	7	[9, 8, 4]	21.0	FR1	1	R1075J
759.856	2.117	940816	PROB	2.087	n/a	n/a	-999	7	[2, 2, 2]	6.0	FR1	1	R1075J
761.973	3.531	942933	PROB	3.531	n/a	n/a	-999	7	[3, 6, 7]	16.0	FR1	1	R1075J
765.504	0.003	946464	STOP	n/a	n/a	n/a	-999	7	[-999, -999, -999]	n/a	FR1	1	R1075J
765.507	1.051	946467	DISTRACT_END	n/a	n/a	n/a	-999	7	[0, 0, 0]	n/a	FR1	1	R1075J
766.558	3.507	947518	REC_START	n/a	n/a	n/a	-999	7	[0, 0, 0]	n/a	FR1	1	R1075J
770.065	6.478	951025	REC_WORD_VV	3.507	n/a	<>	-999	7	[0, 0, 0]	n/a	FR1	1	R1075J
776.543	0.702	957503	REC_WORD	9.985	n/a	BOOT	2	7	[0, 0, 0]	n/a	FR1	1	R1075J
777.245	7.787	958205	REC_WORD	10.687	n/a	ZOO	-999	7	[0, 0, 0]	n/a	FR1	1	R1075J
785.032	11.536	965992	REC_WORD	18.474	n/a	WHALE	12	7	[0, 0, 0]	n/a	FR1	1	R1075J
796.568	2.259	977529	REC_END	n/a	n/a	n/a	-999	7	[0, 0, 0]	n/a	FR1	1	R1075J
798.827	10.0	979788	COUNTDOWN_START	n/a	n/a	n/a	-999	8	[0, 0, 0]	n/a	FR1	1	R1075J
798.827	10.428	979788	TRIAL	n/a	n/a	n/a	-999	8	[0, 0, 0]	n/a	FR1	1	R1075J
809.255	0.008	990216	COUNTDOWN_END	n/a	n/a	n/a	-999	8	[0, 0, 0]	n/a	FR1	1	R1075J
809.263	1.6	990224	ORIENT	n/a	n/a	n/a	-999	8	[0, 0, 0]	n/a	FR1	1	R1075J
811.779	1.6	992740	WORD	n/a	wordpools/wordpool_EN.txt	SHEET	1	8	[0, 0, 0]	n/a	FR1	1	R1075J
814.23	1.6	995191	WORD	n/a	wordpools/wordpool_EN.txt	STAR	2	8	[0, 0, 0]	n/a	FR1	1	R1075J
816.646	1.6	997607	WORD	n/a	wordpools/wordpool_EN.txt	WOLF	3	8	[0, 0, 0]	n/a	FR1	1	R1075J
819.231	1.6	1000192	WORD	n/a	wordpools/wordpool_EN.txt	HORSE	4	8	[0, 0, 0]	n/a	FR1	1	R1075J
821.78	1.6	1002741	WORD	n/a	wordpools/wordpool_EN.txt	TRASH	5	8	[0, 0, 0]	n/a	FR1	1	R1075J
824.265	1.6	1005226	WORD	n/a	wordpools/wordpool_EN.txt	CORD	6	8	[0, 0, 0]	n/a	FR1	1	R1075J
826.797	1.6	1007758	WORD	n/a	wordpools/wordpool_EN.txt	ANT	7	8	[0, 0, 0]	n/a	FR1	1	R1075J
829.299	1.6	1010260	WORD	n/a	wordpools/wordpool_EN.txt	BOOK	8	8	[0, 0, 0]	n/a	FR1	1	R1075J
831.881	1.6	1012842	WORD	n/a	wordpools/wordpool_EN.txt	TOAD	9	8	[0, 0, 0]	n/a	FR1	1	R1075J
834.249	1.6	1015210	WORD	n/a	wordpools/wordpool_EN.txt	CASH	10	8	[0, 0, 0]	n/a	FR1	1	R1075J
836.782	1.6	1017743	WORD	n/a	wordpools/wordpool_EN.txt	RIB	11	8	[0, 0, 0]	n/a	FR1	1	R1075J
839.167	1.6	1020128	WORD	n/a	wordpools/wordpool_EN.txt	EGG	12	8	[0, 0, 0]	n/a	FR1	1	R1075J
840.783	0.001	1021744	DISTRACT_START	n/a	n/a	n/a	-999	8	[0, 0, 0]	n/a	FR1	1	R1075J
840.784	0.015	1021745	START	n/a	n/a	n/a	-999	8	[-999, -999, -999]	n/a	FR1	1	R1075J
840.799	4.401	1021760	PROB	4.373	n/a	n/a	-999	8	[8, 9, 9]	26.0	FR1	1	R1075J
845.2	1.968	1026161	PROB	1.94	n/a	n/a	-999	8	[1, 3, 7]	11.0	FR1	1	R1075J
847.168	2.682	1028129	PROB	2.659	n/a	n/a	-999	8	[6, 7, 8]	21.0	FR1	1	R1075J
849.85	2.951	1030811	PROB	2.921	n/a	n/a	-999	8	[1, 4, 9]	14.0	FR1	1	R1075J
852.801	2.417	1033762	PROB	2.395	n/a	n/a	-999	8	[2, 1, 7]	10.0	FR1	1	R1075J
855.218	2.284	1036179	PROB	2.249	n/a	n/a	-999	8	[1, 1, 4]	6.0	FR1	1	R1075J
857.502	3.285	1038463	PROB	3.285	n/a	n/a	-999	8	[6, 8, 4]	18.0	FR1	1	R1075J
860.787	0.015	1041748	STOP	n/a	n/a	n/a	-999	8	[-999, -999, -999]	n/a	FR1	1	R1075J
860.802	1.134	1041763	DISTRACT_END	n/a	n/a	n/a	-999	8	[0, 0, 0]	n/a	FR1	1	R1075J
861.936	30.0	1042897	REC_START	n/a	n/a	n/a	-999	8	[0, 0, 0]	n/a	FR1	1	R1075J
891.936	0.01	1072897	REC_WORD_VV	30.0	n/a	<>	-999	8	[0, 0, 0]	n/a	FR1	1	R1075J
891.946	2.294	1072907	REC_END	n/a	n/a	n/a	-999	8	[0, 0, 0]	n/a	FR1	1	R1075J
894.24	0.0	1075201	TRIAL	n/a	n/a	n/a	-999	9	[0, 0, 0]	n/a	FR1	1	R1075J
894.24	10.0	1075201	COUNTDOWN_START	n/a	n/a	n/a	-999	9	[0, 0, 0]	n/a	FR1	1	R1075J
904.668	0.006	1085629	COUNTDOWN_END	n/a	n/a	n/a	-999	9	[0, 0, 0]	n/a	FR1	1	R1075J
904.674	1.6	1085635	ORIENT	n/a	n/a	n/a	-999	9	[0, 0, 0]	n/a	FR1	1	R1075J
907.242	1.6	1088203	WORD	n/a	wordpools/wordpool_EN.txt	POOL	1	9	[0, 0, 0]	n/a	FR1	1	R1075J
909.674	1.6	1090635	WORD	n/a	wordpools/wordpool_EN.txt	SALT	2	9	[0, 0, 0]	n/a	FR1	1	R1075J
912.243	1.6	1093204	WORD	n/a	wordpools/wordpool_EN.txt	OAR	3	9	[0, 0, 0]	n/a	FR1	1	R1075J
914.758	1.6	1095719	WORD	n/a	wordpools/wordpool_EN.txt	BEAN	4	9	[0, 0, 0]	n/a	FR1	1	R1075J
917.243	1.6	1098204	WORD	n/a	wordpools/wordpool_EN.txt	SHRIMP	5	9	[0, 0, 0]	n/a	FR1	1	R1075J
919.776	1.6	1100737	WORD	n/a	wordpools/wordpool_EN.txt	FLAME	6	9	[0, 0, 0]	n/a	FR1	1	R1075J
922.227	1.6	1103188	WORD	n/a	wordpools/wordpool_EN.txt	GEESE	7	9	[0, 0, 0]	n/a	FR1	1	R1075J
924.643	1.6	1105604	WORD	n/a	wordpools/wordpool_EN.txt	WING	8	9	[0, 0, 0]	n/a	FR1	1	R1075J
927.145	1.6	1108106	WORD	n/a	wordpools/wordpool_EN.txt	STOVE	9	9	[0, 0, 0]	n/a	FR1	1	R1075J
929.528	1.6	1110489	WORD	n/a	wordpools/wordpool_EN.txt	SWAMP	10	9	[0, 0, 0]	n/a	FR1	1	R1075J
931.928	1.6	1112889	WORD	n/a	wordpools/wordpool_EN.txt	DEER	11	9	[0, 0, 0]	n/a	FR1	1	R1075J
934.329	1.6	1115290	WORD	n/a	wordpools/wordpool_EN.txt	PIE	12	9	[0, 0, 0]	n/a	FR1	1	R1075J
935.945	0.0	1116906	DISTRACT_START	n/a	n/a	n/a	-999	9	[0, 0, 0]	n/a	FR1	1	R1075J
935.945	0.016	1116906	START	n/a	n/a	n/a	-999	9	[-999, -999, -999]	n/a	FR1	1	R1075J
935.961	3.485	1116922	PROB	3.464	n/a	n/a	-999	9	[6, 7, 7]	20.0	FR1	1	R1075J
939.446	4.333	1120407	PROB	4.313	n/a	n/a	-999	9	[8, 4, 8]	20.0	FR1	1	R1075J
943.779	2.768	1124740	PROB	2.741	n/a	n/a	-999	9	[1, 8, 7]	16.0	FR1	1	R1075J
946.547	3.166	1127508	PROB	3.132	n/a	n/a	-999	9	[8, 3, 8]	19.0	FR1	1	R1075J
949.713	3.618	1130674	PROB	3.59	n/a	n/a	-999	9	[5, 9, 2]	16.0	FR1	1	R1075J
953.331	5.411	1134292	PROB	5.411	n/a	n/a	-999	9	[5, 9, 2]	16.0	FR1	1	R1075J
958.742	0.005	1139703	STOP	n/a	n/a	n/a	-999	9	[-999, -999, -999]	n/a	FR1	1	R1075J
958.747	1.051	1139708	DISTRACT_END	n/a	n/a	n/a	-999	9	[0, 0, 0]	n/a	FR1	1	R1075J
959.798	5.509	1140759	REC_START	n/a	n/a	n/a	-999	9	[0, 0, 0]	n/a	FR1	1	R1075J
965.307	1.167	1146268	REC_WORD	5.509	n/a	OAR	3	9	[0, 0, 0]	n/a	FR1	1	R1075J
966.474	3.715	1147435	REC_WORD	6.676	n/a	ROPE	-999	9	[0, 0, 0]	n/a	FR1	1	R1075J
970.189	19.623	1151150	REC_WORD	10.391	n/a	BOOK	-999	9	[0, 0, 0]	n/a	FR1	1	R1075J
989.812	1.973	1170773	REC_END	n/a	n/a	n/a	-999	9	[0, 0, 0]	n/a	FR1	1	R1075J
991.785	0.0	1172746	TRIAL	n/a	n/a	n/a	-999	10	[0, 0, 0]	n/a	FR1	1	R1075J
991.785	10.0	1172746	COUNTDOWN_START	n/a	n/a	n/a	-999	10	[0, 0, 0]	n/a	FR1	1	R1075J
1002.213	0.008	1183174	COUNTDOWN_END	n/a	n/a	n/a	-999	10	[0, 0, 0]	n/a	FR1	1	R1075J
1002.221	1.6	1183182	ORIENT	n/a	n/a	n/a	-999	10	[0, 0, 0]	n/a	FR1	1	R1075J
1004.82	1.6	1185781	WORD	n/a	wordpools/wordpool_EN.txt	ROCK	1	10	[0, 0, 0]	n/a	FR1	1	R1075J
1007.221	1.6	1188182	WORD	n/a	wordpools/wordpool_EN.txt	CLIFF	2	10	[0, 0, 0]	n/a	FR1	1	R1075J
1009.621	1.6	1190582	WORD	n/a	wordpools/wordpool_EN.txt	FUR	3	10	[0, 0, 0]	n/a	FR1	1	R1075J
1012.089	1.6	1193050	WORD	n/a	wordpools/wordpool_EN.txt	PIG	4	10	[0, 0, 0]	n/a	FR1	1	R1075J
1014.555	1.6	1195516	WORD	n/a	wordpools/wordpool_EN.txt	STORE	5	10	[0, 0, 0]	n/a	FR1	1	R1075J
1017.038	1.6	1197999	WORD	n/a	wordpools/wordpool_EN.txt	JAR	6	10	[0, 0, 0]	n/a	FR1	1	R1075J
1019.556	1.6	1200517	WORD	n/a	wordpools/wordpool_EN.txt	CORN	7	10	[0, 0, 0]	n/a	FR1	1	R1075J
1021.955	1.6	1202916	WORD	n/a	wordpools/wordpool_EN.txt	BEAK	8	10	[0, 0, 0]	n/a	FR1	1	R1075J
1024.556	1.6	1205517	WORD	n/a	wordpools/wordpool_EN.txt	CAVE	9	10	[0, 0, 0]	n/a	FR1	1	R1075J
1027.123	1.6	1208084	WORD	n/a	wordpools/wordpool_EN.txt	BEACH	10	10	[0, 0, 0]	n/a	FR1	1	R1075J
1029.607	1.6	1210568	WORD	n/a	wordpools/wordpool_EN.txt	DRUM	11	10	[0, 0, 0]	n/a	FR1	1	R1075J
1032.174	1.6	1213135	WORD	n/a	wordpools/wordpool_EN.txt	VINE	12	10	[0, 0, 0]	n/a	FR1	1	R1075J
1033.79	0.001	1214751	DISTRACT_START	n/a	n/a	n/a	-999	10	[0, 0, 0]	n/a	FR1	1	R1075J
1033.791	0.015	1214752	START	n/a	n/a	n/a	-999	10	[-999, -999, -999]	n/a	FR1	1	R1075J
1033.806	3.251	1214767	PROB	3.229	n/a	n/a	-999	10	[1, 4, 2]	7.0	FR1	1	R1075J
1037.057	3.201	1218018	PROB	3.171	n/a	n/a	-999	10	[9, 6, 7]	22.0	FR1	1	R1075J
1040.258	2.433	1221219	PROB	2.401	n/a	n/a	-999	10	[4, 4, 4]	12.0	FR1	1	R1075J
1042.691	2.802	1223652	PROB	2.777	n/a	n/a	-999	10	[3, 4, 1]	8.0	FR1	1	R1075J
1045.493	3.85	1226454	PROB	3.815	n/a	n/a	-999	10	[8, 5, 3]	16.0	FR1	1	R1075J
1049.343	2.583	1230304	PROB	2.548	n/a	n/a	-999	10	[5, 2, 3]	12.0	FR1	1	R1075J
1051.926	4.004	1232887	PROB	4.004	n/a	n/a	-999	10	[8, 3, 6]	17.0	FR1	1	R1075J
1055.93	0.013	1236891	STOP	n/a	n/a	n/a	-999	10	[-999, -999, -999]	n/a	FR1	1	R1075J
1055.943	1.067	1236904	DISTRACT_END	n/a	n/a	n/a	-999	10	[0, 0, 0]	n/a	FR1	1	R1075J
1057.01	16.517	1237971	REC_START	n/a	n/a	n/a	-999	10	[0, 0, 0]	n/a	FR1	1	R1075J
1073.527	1.764	1254488	REC_WORD	16.517	n/a	POOL	-999	10	[0, 0, 0]	n/a	FR1	1	R1075J
1075.291	11.733	1256252	REC_WORD	18.281	n/a	CAVE	9	10	[0, 0, 0]	n/a	FR1	1	R1075J
1087.024	1.856	1267985	REC_END	n/a	n/a	n/a	-999	10	[0, 0, 0]	n/a	FR1	1	R1075J
1088.88	10.0	1269841	COUNTDOWN_START	n/a	n/a	n/a	-999	11	[0, 0, 0]	n/a	FR1	1	R1075J
1088.881	10.427	1269842	TRIAL	n/a	n/a	n/a	-999	11	[0, 0, 0]	n/a	FR1	1	R1075J
1099.308	0.008	1280269	COUNTDOWN_END	n/a	n/a	n/a	-999	11	[0, 0, 0]	n/a	FR1	1	R1075J
1099.316	1.6	1280277	ORIENT	n/a	n/a	n/a	-999	11	[0, 0, 0]	n/a	FR1	1	R1075J
1101.865	1.6	1282826	WORD	n/a	wordpools/wordpool_EN.txt	SMILE	1	11	[0, 0, 0]	n/a	FR1	1	R1075J
1104.383	1.6	1285344	WORD	n/a	wordpools/wordpool_EN.txt	FAN	2	11	[0, 0, 0]	n/a	FR1	1	R1075J
1106.833	1.6	1287794	WORD	n/a	wordpools/wordpool_EN.txt	CART	3	11	[0, 0, 0]	n/a	FR1	1	R1075J
1109.451	1.6	1290412	WORD	n/a	wordpools/wordpool_EN.txt	SEAT	4	11	[0, 0, 0]	n/a	FR1	1	R1075J
1112.0	1.6	1292961	WORD	n/a	wordpools/wordpool_EN.txt	BOX	5	11	[0, 0, 0]	n/a	FR1	1	R1075J
1114.585	1.6	1295546	WORD	n/a	wordpools/wordpool_EN.txt	GLOVE	6	11	[0, 0, 0]	n/a	FR1	1	R1075J
1117.118	1.6	1298079	WORD	n/a	wordpools/wordpool_EN.txt	WAND	7	11	[0, 0, 0]	n/a	FR1	1	R1075J
1119.618	1.6	1300579	WORD	n/a	wordpools/wordpool_EN.txt	ARM	8	11	[0, 0, 0]	n/a	FR1	1	R1075J
1122.069	1.6	1303030	WORD	n/a	wordpools/wordpool_EN.txt	BAG	9	11	[0, 0, 0]	n/a	FR1	1	R1075J
1124.569	1.6	1305530	WORD	n/a	wordpools/wordpool_EN.txt	BROOM	10	11	[0, 0, 0]	n/a	FR1	1	R1075J
1127.186	1.6	1308147	WORD	n/a	wordpools/wordpool_EN.txt	FENCE	11	11	[0, 0, 0]	n/a	FR1	1	R1075J
1129.736	1.6	1310697	WORD	n/a	wordpools/wordpool_EN.txt	SIGN	12	11	[0, 0, 0]	n/a	FR1	1	R1075J
1131.354	0.001	1312315	DISTRACT_START	n/a	n/a	n/a	-999	11	[0, 0, 0]	n/a	FR1	1	R1075J
1131.355	0.015	1312316	START	n/a	n/a	n/a	-999	11	[-999, -999, -999]	n/a	FR1	1	R1075J
1131.37	3.984	1312331	PROB	3.95	n/a	n/a	-999	11	[6, 1, 7]	14.0	FR1	1	R1075J
1135.354	3.599	1316315	PROB	3.564	n/a	n/a	-999	11	[9, 9, 7]	25.0	FR1	1	R1075J
1138.953	3.034	1319914	PROB	3.006	n/a	n/a	-999	11	[4, 2, 3]	9.0	FR1	1	R1075J
1141.987	4.034	1322948	PROB	4.011	n/a	n/a	-999	11	[3, 5, 9]	17.0	FR1	1	R1075J
1146.021	2.8	1326982	PROB	2.769	n/a	n/a	-999	11	[2, 6, 9]	17.0	FR1	1	R1075J
1148.821	2.681	1329782	PROB	2.681	n/a	n/a	-999	11	[1, 7, 2]	10.0	FR1	1	R1075J
1151.502	0.021	1332463	STOP	n/a	n/a	n/a	-999	11	[-999, -999, -999]	n/a	FR1	1	R1075J
1151.523	1.084	1332484	DISTRACT_END	n/a	n/a	n/a	-999	11	[0, 0, 0]	n/a	FR1	1	R1075J
1152.607	12.592	1333568	REC_START	n/a	n/a	n/a	-999	11	[0, 0, 0]	n/a	FR1	1	R1075J
1165.199	0.726	1346160	REC_WORD	12.592	n/a	SMILE	1	11	[0, 0, 0]	n/a	FR1	1	R1075J
1165.925	6.427	1346886	REC_WORD	13.318	n/a	BOX	5	11	[0, 0, 0]	n/a	FR1	1	R1075J
1172.352	6.006	1353313	REC_WORD	19.745	n/a	TEETH	-999	11	[0, 0, 0]	n/a	FR1	1	R1075J
1178.358	4.258	1359319	REC_WORD	25.751	n/a	CAGE	-999	11	[0, 0, 0]	n/a	FR1	1	R1075J
1182.616	1.777	1363577	REC_END	n/a	n/a	n/a	-999	11	[0, 0, 0]	n/a	FR1	1	R1075J
1184.393	0.0	1365354	TRIAL	n/a	n/a	n/a	-999	12	[0, 0, 0]	n/a	FR1	1	R1075J
1184.393	10.0	1365354	COUNTDOWN_START	n/a	n/a	n/a	-999	12	[0, 0, 0]	n/a	FR1	1	R1075J
1194.821	0.006	1375782	COUNTDOWN_END	n/a	n/a	n/a	-999	12	[0, 0, 0]	n/a	FR1	1	R1075J
1194.827	1.6	1375788	ORIENT	n/a	n/a	n/a	-999	12	[0, 0, 0]	n/a	FR1	1	R1075J
1197.428	1.6	1378389	WORD	n/a	wordpools/wordpool_EN.txt	CAT	1	12	[0, 0, 0]	n/a	FR1	1	R1075J
1199.911	1.6	1380872	WORD	n/a	wordpools/wordpool_EN.txt	TRAIN	2	12	[0, 0, 0]	n/a	FR1	1	R1075J
1202.313	1.6	1383274	WORD	n/a	wordpools/wordpool_EN.txt	JEEP	3	12	[0, 0, 0]	n/a	FR1	1	R1075J
1204.828	1.6	1385789	WORD	n/a	wordpools/wordpool_EN.txt	MOON	4	12	[0, 0, 0]	n/a	FR1	1	R1075J
1207.363	1.6	1388324	WORD	n/a	wordpools/wordpool_EN.txt	PRINCE	5	12	[0, 0, 0]	n/a	FR1	1	R1075J
1209.862	1.6	1390823	WORD	n/a	wordpools/wordpool_EN.txt	HEART	6	12	[0, 0, 0]	n/a	FR1	1	R1075J
1212.347	1.6	1393308	WORD	n/a	wordpools/wordpool_EN.txt	BEAR	7	12	[0, 0, 0]	n/a	FR1	1	R1075J
1214.963	1.6	1395924	WORD	n/a	wordpools/wordpool_EN.txt	GOLD	8	12	[0, 0, 0]	n/a	FR1	1	R1075J
1217.447	1.6	1398408	WORD	n/a	wordpools/wordpool_EN.txt	GRAPE	9	12	[0, 0, 0]	n/a	FR1	1	R1075J
1219.947	1.6	1400908	WORD	n/a	wordpools/wordpool_EN.txt	BALL	10	12	[0, 0, 0]	n/a	FR1	1	R1075J
1222.548	1.6	1403509	WORD	n/a	wordpools/wordpool_EN.txt	FARM	11	12	[0, 0, 0]	n/a	FR1	1	R1075J
1224.947	1.6	1405908	WORD	n/a	wordpools/wordpool_EN.txt	APE	12	12	[0, 0, 0]	n/a	FR1	1	R1075J
1226.548	0.001	1407509	DISTRACT_START	n/a	n/a	n/a	-999	12	[0, 0, 0]	n/a	FR1	1	R1075J
1226.549	0.016	1407510	START	n/a	n/a	n/a	-999	12	[-999, -999, -999]	n/a	FR1	1	R1075J
1226.565	3.233	1407526	PROB	3.205	n/a	n/a	-999	12	[9, 6, 1]	16.0	FR1	1	R1075J
1229.798	2.368	1410759	PROB	2.334	n/a	n/a	-999	12	[8, 9, 1]	18.0	FR1	1	R1075J
1232.166	2.4	1413127	PROB	2.373	n/a	n/a	-999	12	[5, 2, 3]	12.0	FR1	1	R1075J
1234.566	3.416	1415527	PROB	3.38	n/a	n/a	-999	12	[5, 3, 9]	17.0	FR1	1	R1075J
1237.982	3.368	1418943	PROB	3.341	n/a	n/a	-999	12	[7, 9, 8]	23.0	FR1	1	R1075J
1241.35	2.616	1422311	PROB	2.587	n/a	n/a	-999	12	[2, 2, 8]	12.0	FR1	1	R1075J
1243.966	3.149	1424927	PROB	3.149	n/a	n/a	-999	12	[1, 8, 7]	16.0	FR1	1	R1075J
1247.115	0.019	1428076	STOP	n/a	n/a	n/a	-999	12	[-999, -999, -999]	n/a	FR1	1	R1075J
1247.134	1.034	1428095	DISTRACT_END	n/a	n/a	n/a	-999	12	[0, 0, 0]	n/a	FR1	1	R1075J
1248.168	1.529	1429129	REC_START	n/a	n/a	n/a	-999	12	[0, 0, 0]	n/a	FR1	1	R1075J
1249.697	1.58	1430658	REC_WORD	1.529	n/a	CAT	1	12	[0, 0, 0]	n/a	FR1	1	R1075J
1251.277	1.406	1432238	REC_WORD	3.109	n/a	MOON	4	12	[0, 0, 0]	n/a	FR1	1	R1075J
1252.683	1.484	1433644	REC_WORD	4.515	n/a	GRAPE	9	12	[0, 0, 0]	n/a	FR1	1	R1075J
1254.167	0.556	1435128	REC_WORD	5.999	n/a	PRINCE	5	12	[0, 0, 0]	n/a	FR1	1	R1075J
1254.723	7.009	1435684	REC_WORD	6.555	n/a	HEART	6	12	[0, 0, 0]	n/a	FR1	1	R1075J
1261.732	0.718	1442693	REC_WORD_VV	13.564	n/a	<>	-999	12	[0, 0, 0]	n/a	FR1	1	R1075J
1262.45	15.732	1443411	REC_WORD	14.282	n/a	TOAD	-999	12	[0, 0, 0]	n/a	FR1	1	R1075J
1278.182	1.755	1459143	REC_END	n/a	n/a	n/a	-999	12	[0, 0, 0]	n/a	FR1	1	R1075J
1279.937	10.0	1460898	COUNTDOWN_START	n/a	n/a	n/a	-999	13	[0, 0, 0]	n/a	FR1	1	R1075J
1279.937	10.428	1460898	TRIAL	n/a	n/a	n/a	-999	13	[0, 0, 0]	n/a	FR1	1	R1075J
1290.365	0.008	1471326	COUNTDOWN_END	n/a	n/a	n/a	-999	13	[0, 0, 0]	n/a	FR1	1	R1075J
1290.373	1.6	1471334	ORIENT	n/a	n/a	n/a	-999	13	[0, 0, 0]	n/a	FR1	1	R1075J
1292.789	1.6	1473750	WORD	n/a	wordpools/wordpool_EN.txt	CRANE	1	13	[0, 0, 0]	n/a	FR1	1	R1075J
1295.174	1.6	1476135	WORD	n/a	wordpools/wordpool_EN.txt	LOCK	2	13	[0, 0, 0]	n/a	FR1	1	R1075J
1297.656	1.6	1478617	WORD	n/a	wordpools/wordpool_EN.txt	CROW	3	13	[0, 0, 0]	n/a	FR1	1	R1075J
1300.224	1.6	1481185	WORD	n/a	wordpools/wordpool_EN.txt	OAK	4	13	[0, 0, 0]	n/a	FR1	1	R1075J
1302.657	1.6	1483618	WORD	n/a	wordpools/wordpool_EN.txt	HOLE	5	13	[0, 0, 0]	n/a	FR1	1	R1075J
1305.175	1.6	1486136	WORD	n/a	wordpools/wordpool_EN.txt	GUARD	6	13	[0, 0, 0]	n/a	FR1	1	R1075J
1307.791	1.6	1488752	WORD	n/a	wordpools/wordpool_EN.txt	LIP	7	13	[0, 0, 0]	n/a	FR1	1	R1075J
1310.176	1.6	1491137	WORD	n/a	wordpools/wordpool_EN.txt	TOOL	8	13	[0, 0, 0]	n/a	FR1	1	R1075J
1312.692	1.6	1493653	WORD	n/a	wordpools/wordpool_EN.txt	COUCH	9	13	[0, 0, 0]	n/a	FR1	1	R1075J
1315.109	1.6	1496070	WORD	n/a	wordpools/wordpool_EN.txt	LAWN	10	13	[0, 0, 0]	n/a	FR1	1	R1075J
1317.493	1.6	1498454	WORD	n/a	wordpools/wordpool_EN.txt	TENT	11	13	[0, 0, 0]	n/a	FR1	1	R1075J
1320.077	1.6	1501038	WORD	n/a	wordpools/wordpool_EN.txt	CUBE	12	13	[0, 0, 0]	n/a	FR1	1	R1075J
1321.693	0.001	1502654	DISTRACT_START	n/a	n/a	n/a	-999	13	[0, 0, 0]	n/a	FR1	1	R1075J
1321.694	0.015	1502655	START	n/a	n/a	n/a	-999	13	[-999, -999, -999]	n/a	FR1	1	R1075J
1321.709	3.35	1502670	PROB	3.329	n/a	n/a	-999	13	[7, 3, 6]	16.0	FR1	1	R1075J
1325.059	2.202	1506020	PROB	2.172	n/a	n/a	-999	13	[9, 4, 9]	22.0	FR1	1	R1075J
1327.261	4.5	1508222	PROB	4.465	n/a	n/a	-999	13	[8, 5, 8]	23.0	FR1	1	R1075J
1331.761	2.767	1512722	PROB	2.733	n/a	n/a	-999	13	[5, 4, 2]	11.0	FR1	1	R1075J
1334.528	5.25	1515489	PROB	5.229	n/a	n/a	-999	13	[4, 8, 6]	18.0	FR1	1	R1075J
1339.778	2.3	1520739	PROB	2.3	n/a	n/a	-999	13	[9, 4, 1]	14.0	FR1	1	R1075J
1342.078	0.018	1523039	STOP	n/a	n/a	n/a	-999	13	[-999, -999, -999]	n/a	FR1	1	R1075J
1342.096	1.184	1523057	DISTRACT_END	n/a	n/a	n/a	-999	13	[0, 0, 0]	n/a	FR1	1	R1075J
1343.28	9.347	1524241	REC_START	n/a	n/a	n/a	-999	13	[0, 0, 0]	n/a	FR1	1	R1075J
1352.627	3.043	1533588	REC_WORD	9.347	n/a	COUCH	9	13	[0, 0, 0]	n/a	FR1	1	R1075J
1355.67	17.624	1536631	REC_WORD	12.39	n/a	TOOL	8	13	[0, 0, 0]	n/a	FR1	1	R1075J
1373.294	2.355	1554255	REC_END	n/a	n/a	n/a	-999	13	[0, 0, 0]	n/a	FR1	1	R1075J
1375.649	0.0	1556610	TRIAL	n/a	n/a	n/a	-999	14	[0, 0, 0]	n/a	FR1	1	R1075J
1375.649	10.0	1556610	COUNTDOWN_START	n/a	n/a	n/a	-999	14	[0, 0, 0]	n/a	FR1	1	R1075J
1386.077	0.008	1567038	COUNTDOWN_END	n/a	n/a	n/a	-999	14	[0, 0, 0]	n/a	FR1	1	R1075J
1386.085	1.6	1567046	ORIENT	n/a	n/a	n/a	-999	14	[0, 0, 0]	n/a	FR1	1	R1075J
1388.502	1.6	1569463	WORD	n/a	wordpools/wordpool_EN.txt	KEY	1	14	[0, 0, 0]	n/a	FR1	1	R1075J
1391.102	1.6	1572063	WORD	n/a	wordpools/wordpool_EN.txt	MAP	2	14	[0, 0, 0]	n/a	FR1	1	R1075J
1393.536	1.6	1574497	WORD	n/a	wordpools/wordpool_EN.txt	CLOWN	3	14	[0, 0, 0]	n/a	FR1	1	R1075J
1396.119	1.6	1577080	WORD	n/a	wordpools/wordpool_EN.txt	FRUIT	4	14	[0, 0, 0]	n/a	FR1	1	R1075J
1398.719	1.6	1579680	WORD	n/a	wordpools/wordpool_EN.txt	FISH	5	14	[0, 0, 0]	n/a	FR1	1	R1075J
1401.304	1.6	1582265	WORD	n/a	wordpools/wordpool_EN.txt	CHIEF	6	14	[0, 0, 0]	n/a	FR1	1	R1075J
1403.803	1.6	1584764	WORD	n/a	wordpools/wordpool_EN.txt	MILK	7	14	[0, 0, 0]	n/a	FR1	1	R1075J
1406.304	1.6	1587265	WORD	n/a	wordpools/wordpool_EN.txt	SHARK	8	14	[0, 0, 0]	n/a	FR1	1	R1075J
1408.887	1.6	1589848	WORD	n/a	wordpools/wordpool_EN.txt	FORT	9	14	[0, 0, 0]	n/a	FR1	1	R1075J
1411.455	1.6	1592416	WORD	n/a	wordpools/wordpool_EN.txt	SEA	10	14	[0, 0, 0]	n/a	FR1	1	R1075J
1413.854	1.6	1594815	WORD	n/a	wordpools/wordpool_EN.txt	JUDGE	11	14	[0, 0, 0]	n/a	FR1	1	R1075J
1416.239	1.6	1597200	WORD	n/a	wordpools/wordpool_EN.txt	PASTE	12	14	[0, 0, 0]	n/a	FR1	1	R1075J
1417.855	0.001	1598816	DISTRACT_START	n/a	n/a	n/a	-999	14	[0, 0, 0]	n/a	FR1	1	R1075J
1417.856	0.016	1598817	START	n/a	n/a	n/a	-999	14	[-999, -999, -999]	n/a	FR1	1	R1075J
1417.872	3.8	1598833	PROB	3.778	n/a	n/a	-999	14	[9, 3, 9]	21.0	FR1	1	R1075J
1421.672	6.284	1602633	PROB	6.258	n/a	n/a	-999	14	[4, 1, 3]	8.0	FR1	1	R1075J
1427.956	5.251	1608917	PROB	5.231	n/a	n/a	-999	14	[7, 6, 9]	22.0	FR1	1	R1075J
1433.207	3.268	1614168	PROB	3.235	n/a	n/a	-999	14	[7, 5, 3]	15.0	FR1	1	R1075J
1436.475	3.087	1617436	PROB	3.087	n/a	n/a	-999	14	[9, 5, 8]	22.0	FR1	1	R1075J
1439.562	0.013	1620523	STOP	n/a	n/a	n/a	-999	14	[-999, -999, -999]	n/a	FR1	1	R1075J
1439.575	1.217	1620536	DISTRACT_END	n/a	n/a	n/a	-999	14	[0, 0, 0]	n/a	FR1	1	R1075J
1440.792	30.0	1621753	REC_START	n/a	n/a	n/a	-999	14	[0, 0, 0]	n/a	FR1	1	R1075J
1470.792	0.01	1651753	REC_WORD_VV	30.0	n/a	<>	-999	14	[0, 0, 0]	n/a	FR1	1	R1075J
1470.802	2.361	1651763	REC_END	n/a	n/a	n/a	-999	14	[0, 0, 0]	n/a	FR1	1	R1075J
1473.163	0.0	1654124	TRIAL	n/a	n/a	n/a	-999	15	[0, 0, 0]	n/a	FR1	1	R1075J
1473.163	10.0	1654124	COUNTDOWN_START	n/a	n/a	n/a	-999	15	[0, 0, 0]	n/a	FR1	1	R1075J
1483.591	0.006	1664552	COUNTDOWN_END	n/a	n/a	n/a	-999	15	[0, 0, 0]	n/a	FR1	1	R1075J
1483.597	1.6	1664558	ORIENT	n/a	n/a	n/a	-999	15	[0, 0, 0]	n/a	FR1	1	R1075J
1486.081	1.6	1667042	WORD	n/a	wordpools/wordpool_EN.txt	CHEEK	1	15	[0, 0, 0]	n/a	FR1	1	R1075J
1488.614	1.6	1669575	WORD	n/a	wordpools/wordpool_EN.txt	RAIN	2	15	[0, 0, 0]	n/a	FR1	1	R1075J
1491.132	1.6	1672093	WORD	n/a	wordpools/wordpool_EN.txt	TOAST	3	15	[0, 0, 0]	n/a	FR1	1	R1075J
1493.515	1.6	1674476	WORD	n/a	wordpools/wordpool_EN.txt	CAPE	4	15	[0, 0, 0]	n/a	FR1	1	R1075J
1496.115	1.6	1677076	WORD	n/a	wordpools/wordpool_EN.txt	LAND	5	15	[0, 0, 0]	n/a	FR1	1	R1075J
1498.549	1.6	1679510	WORD	n/a	wordpools/wordpool_EN.txt	RICE	6	15	[0, 0, 0]	n/a	FR1	1	R1075J
1501.133	1.6	1682094	WORD	n/a	wordpools/wordpool_EN.txt	DOCK	7	15	[0, 0, 0]	n/a	FR1	1	R1075J
1503.583	1.6	1684544	WORD	n/a	wordpools/wordpool_EN.txt	CANE	8	15	[0, 0, 0]	n/a	FR1	1	R1075J
1506.117	1.6	1687078	WORD	n/a	wordpools/wordpool_EN.txt	SUN	9	15	[0, 0, 0]	n/a	FR1	1	R1075J
1508.7	1.6	1689661	WORD	n/a	wordpools/wordpool_EN.txt	SHIP	10	15	[0, 0, 0]	n/a	FR1	1	R1075J
1511.084	1.6	1692045	WORD	n/a	wordpools/wordpool_EN.txt	EEL	11	15	[0, 0, 0]	n/a	FR1	1	R1075J
1513.551	1.6	1694512	WORD	n/a	wordpools/wordpool_EN.txt	FOAM	12	15	[0, 0, 0]	n/a	FR1	1	R1075J
1515.168	0.001	1696129	DISTRACT_START	n/a	n/a	n/a	-999	15	[0, 0, 0]	n/a	FR1	1	R1075J
1515.169	0.015	1696130	START	n/a	n/a	n/a	-999	15	[-999, -999, -999]	n/a	FR1	1	R1075J
1515.184	5.285	1696145	PROB	5.263	n/a	n/a	-999	15	[5, 6, 7]	18.0	FR1	1	R1075J
1520.469	2.683	1701430	PROB	2.658	n/a	n/a	-999	15	[7, 7, 1]	15.0	FR1	1	R1075J
1523.152	5.451	1704113	PROB	5.431	n/a	n/a	-999	15	[4, 7, 2]	13.0	FR1	1	R1075J
1528.603	2.517	1709564	PROB	2.492	n/a	n/a	-999	15	[6, 5, 5]	16.0	FR1	1	R1075J
1531.12	2.367	1712081	PROB	2.342	n/a	n/a	-999	15	[1, 2, 6]	9.0	FR1	1	R1075J
1533.487	3.134	1714448	PROB	3.134	n/a	n/a	-999	15	[6, 5, 7]	18.0	FR1	1	R1075J
1536.621	0.015	1717582	STOP	n/a	n/a	n/a	-999	15	[-999, -999, -999]	n/a	FR1	1	R1075J
1536.636	1.185	1717597	DISTRACT_END	n/a	n/a	n/a	-999	15	[0, 0, 0]	n/a	FR1	1	R1075J
1537.821	1.799	1718782	REC_START	n/a	n/a	n/a	-999	15	[0, 0, 0]	n/a	FR1	1	R1075J
1539.62	0.302	1720581	REC_WORD_VV	1.799	n/a	<>	-999	15	[0, 0, 0]	n/a	FR1	1	R1075J
1539.922	8.516	1720883	REC_WORD	2.101	n/a	FOAM	12	15	[0, 0, 0]	n/a	FR1	1	R1075J
1548.438	8.443	1729399	REC_WORD	10.617	n/a	SEA	-999	15	[0, 0, 0]	n/a	FR1	1	R1075J
1556.881	10.95	1737842	REC_WORD	19.06	n/a	FORK	-999	15	[0, 0, 0]	n/a	FR1	1	R1075J
1567.831	2.377	1748792	REC_END	n/a	n/a	n/a	-999	15	[0, 0, 0]	n/a	FR1	1	R1075J
1570.208	10.0	1751169	COUNTDOWN_START	n/a	n/a	n/a	-999	16	[0, 0, 0]	n/a	FR1	1	R1075J
1570.208	10.428	1751169	TRIAL	n/a	n/a	n/a	-999	16	[0, 0, 0]	n/a	FR1	1	R1075J
1580.636	0.006	1761597	COUNTDOWN_END	n/a	n/a	n/a	-999	16	[0, 0, 0]	n/a	FR1	1	R1075J
1580.642	1.6	1761603	ORIENT	n/a	n/a	n/a	-999	16	[0, 0, 0]	n/a	FR1	1	R1075J
1583.177	1.6	1764138	WORD	n/a	wordpools/wordpool_EN.txt	BRANCH	1	16	[0, 0, 0]	n/a	FR1	1	R1075J
1585.693	1.6	1766654	WORD	n/a	wordpools/wordpool_EN.txt	LAMB	2	16	[0, 0, 0]	n/a	FR1	1	R1075J
1588.077	1.6	1769038	WORD	n/a	wordpools/wordpool_EN.txt	AXE	3	16	[0, 0, 0]	n/a	FR1	1	R1075J
1590.595	1.6	1771556	WORD	n/a	wordpools/wordpool_EN.txt	WORLD	4	16	[0, 0, 0]	n/a	FR1	1	R1075J
1593.211	1.6	1774172	WORD	n/a	wordpools/wordpool_EN.txt	SPEAR	5	16	[0, 0, 0]	n/a	FR1	1	R1075J
1595.744	1.6	1776705	WORD	n/a	wordpools/wordpool_EN.txt	PEARL	6	16	[0, 0, 0]	n/a	FR1	1	R1075J
1598.362	1.6	1779323	WORD	n/a	wordpools/wordpool_EN.txt	BLOOM	7	16	[0, 0, 0]	n/a	FR1	1	R1075J
1600.811	1.6	1781772	WORD	n/a	wordpools/wordpool_EN.txt	THREAD	8	16	[0, 0, 0]	n/a	FR1	1	R1075J
1603.329	1.6	1784290	WORD	n/a	wordpools/wordpool_EN.txt	MOTH	9	16	[0, 0, 0]	n/a	FR1	1	R1075J
1605.728	1.6	1786689	WORD	n/a	wordpools/wordpool_EN.txt	PLANT	10	16	[0, 0, 0]	n/a	FR1	1	R1075J
1608.33	1.6	1789291	WORD	n/a	wordpools/wordpool_EN.txt	FOOD	11	16	[0, 0, 0]	n/a	FR1	1	R1075J
1610.746	1.6	1791707	WORD	n/a	wordpools/wordpool_EN.txt	BEE	12	16	[0, 0, 0]	n/a	FR1	1	R1075J
1612.347	0.001	1793308	DISTRACT_START	n/a	n/a	n/a	-999	16	[0, 0, 0]	n/a	FR1	1	R1075J
1612.348	0.016	1793309	START	n/a	n/a	n/a	-999	16	[-999, -999, -999]	n/a	FR1	1	R1075J
1612.364	3.616	1793325	PROB	3.59	n/a	n/a	-999	16	[3, 3, 2]	8.0	FR1	1	R1075J
1615.98	3.9	1796941	PROB	3.878	n/a	n/a	-999	16	[9, 3, 2]	14.0	FR1	1	R1075J
1619.88	2.851	1800841	PROB	2.818	n/a	n/a	-999	16	[8, 5, 9]	22.0	FR1	1	R1075J
1622.731	2.85	1803692	PROB	2.815	n/a	n/a	-999	16	[8, 4, 3]	15.0	FR1	1	R1075J
1625.581	3.134	1806542	PROB	3.108	n/a	n/a	-999	16	[7, 1, 3]	11.0	FR1	1	R1075J
1628.715	3.418	1809676	PROB	3.383	n/a	n/a	-999	16	[3, 6, 6]	15.0	FR1	1	R1075J
1632.133	2.683	1813094	PROB	2.683	n/a	n/a	-999	16	[7, 2, 1]	10.0	FR1	1	R1075J
1634.816	0.016	1815777	STOP	n/a	n/a	n/a	-999	16	[-999, -999, -999]	n/a	FR1	1	R1075J
1634.832	1.134	1815793	DISTRACT_END	n/a	n/a	n/a	-999	16	[0, 0, 0]	n/a	FR1	1	R1075J
1635.966	7.568	1816927	REC_START	n/a	n/a	n/a	-999	16	[0, 0, 0]	n/a	FR1	1	R1075J
1643.534	0.509	1824495	REC_WORD_VV	7.568	n/a	<>	-999	16	[0, 0, 0]	n/a	FR1	1	R1075J
1644.043	1.768	1825004	REC_WORD	8.077	n/a	BOOK	-999	16	[0, 0, 0]	n/a	FR1	1	R1075J
1645.811	0.95	1826772	REC_WORD	9.845	n/a	PIER	-999	16	[0, 0, 0]	n/a	FR1	1	R1075J
1646.761	8.756	1827722	REC_WORD	10.795	n/a	PEAR	-999	16	[0, 0, 0]	n/a	FR1	1	R1075J
1655.517	10.457	1836478	REC_WORD	19.551	n/a	SPEAR	5	16	[0, 0, 0]	n/a	FR1	1	R1075J
1665.974	2.18	1846935	REC_END	n/a	n/a	n/a	-999	16	[0, 0, 0]	n/a	FR1	1	R1075J
1668.154	0.0	1849115	TRIAL	n/a	n/a	n/a	-999	17	[0, 0, 0]	n/a	FR1	1	R1075J
1668.154	10.0	1849115	COUNTDOWN_START	n/a	n/a	n/a	-999	17	[0, 0, 0]	n/a	FR1	1	R1075J
1678.582	0.007	1859543	COUNTDOWN_END	n/a	n/a	n/a	-999	17	[0, 0, 0]	n/a	FR1	1	R1075J
1678.589	1.6	1859550	ORIENT	n/a	n/a	n/a	-999	17	[0, 0, 0]	n/a	FR1	1	R1075J
1681.206	1.6	1862167	WORD	n/a	wordpools/wordpool_EN.txt	SUIT	1	17	[0, 0, 0]	n/a	FR1	1	R1075J
1683.671	1.6	1864632	WORD	n/a	wordpools/wordpool_EN.txt	SEED	2	17	[0, 0, 0]	n/a	FR1	1	R1075J
1686.156	1.6	1867117	WORD	n/a	wordpools/wordpool_EN.txt	MAIL	3	17	[0, 0, 0]	n/a	FR1	1	R1075J
1688.556	1.6	1869517	WORD	n/a	wordpools/wordpool_EN.txt	FLOOR	4	17	[0, 0, 0]	n/a	FR1	1	R1075J
1691.107	1.6	1872068	WORD	n/a	wordpools/wordpool_EN.txt	VASE	5	17	[0, 0, 0]	n/a	FR1	1	R1075J
1693.507	1.6	1874468	WORD	n/a	wordpools/wordpool_EN.txt	DESK	6	17	[0, 0, 0]	n/a	FR1	1	R1075J
1695.939	1.6	1876900	WORD	n/a	wordpools/wordpool_EN.txt	CONE	7	17	[0, 0, 0]	n/a	FR1	1	R1075J
1698.358	1.6	1879319	WORD	n/a	wordpools/wordpool_EN.txt	ELF	8	17	[0, 0, 0]	n/a	FR1	1	R1075J
1700.857	1.6	1881818	WORD	n/a	wordpools/wordpool_EN.txt	SNOW	9	17	[0, 0, 0]	n/a	FR1	1	R1075J
1703.408	1.6	1884369	WORD	n/a	wordpools/wordpool_EN.txt	POLE	10	17	[0, 0, 0]	n/a	FR1	1	R1075J
1705.808	1.6	1886769	WORD	n/a	wordpools/wordpool_EN.txt	ICE	11	17	[0, 0, 0]	n/a	FR1	1	R1075J
1708.243	1.6	1889204	WORD	n/a	wordpools/wordpool_EN.txt	JUICE	12	17	[0, 0, 0]	n/a	FR1	1	R1075J
1709.858	0.001	1890819	DISTRACT_START	n/a	n/a	n/a	-999	17	[0, 0, 0]	n/a	FR1	1	R1075J
1709.859	0.016	1890820	START	n/a	n/a	n/a	-999	17	[-999, -999, -999]	n/a	FR1	1	R1075J
1709.875	3.385	1890836	PROB	3.364	n/a	n/a	-999	17	[2, 3, 1]	6.0	FR1	1	R1075J
1713.26	2.2	1894221	PROB	2.171	n/a	n/a	-999	17	[1, 1, 2]	4.0	FR1	1	R1075J
1715.46	3.55	1896421	PROB	3.522	n/a	n/a	-999	17	[1, 5, 8]	14.0	FR1	1	R1075J
1719.01	2.384	1899971	PROB	2.357	n/a	n/a	-999	17	[5, 3, 1]	9.0	FR1	1	R1075J
1721.394	2.566	1902355	PROB	2.539	n/a	n/a	-999	17	[8, 9, 1]	18.0	FR1	1	R1075J
1723.96	3.751	1904921	PROB	3.717	n/a	n/a	-999	17	[6, 8, 5]	19.0	FR1	1	R1075J
1727.711	3.447	1908672	PROB	3.447	n/a	n/a	-999	17	[9, 7, 3]	19.0	FR1	1	R1075J
1731.158	0.004	1912119	STOP	n/a	n/a	n/a	-999	17	[-999, -999, -999]	n/a	FR1	1	R1075J
1731.162	1.134	1912123	DISTRACT_END	n/a	n/a	n/a	-999	17	[0, 0, 0]	n/a	FR1	1	R1075J
1732.296	1.956	1913257	REC_START	n/a	n/a	n/a	-999	17	[0, 0, 0]	n/a	FR1	1	R1075J
1734.252	0.819	1915213	REC_WORD	1.956	n/a	POLE	10	17	[0, 0, 0]	n/a	FR1	1	R1075J
1735.071	5.515	1916032	REC_WORD	2.775	n/a	ICE	11	17	[0, 0, 0]	n/a	FR1	1	R1075J
1740.586	5.661	1921547	REC_WORD	8.29	n/a	AXE	-999	17	[0, 0, 0]	n/a	FR1	1	R1075J
1746.247	16.06	1927208	REC_WORD	13.951	n/a	FISH	-999	17	[0, 0, 0]	n/a	FR1	1	R1075J
1762.307	2.226	1943268	REC_END	n/a	n/a	n/a	-999	17	[0, 0, 0]	n/a	FR1	1	R1075J
1764.533	10.0	1945494	COUNTDOWN_START	n/a	n/a	n/a	-999	18	[0, 0, 0]	n/a	FR1	1	R1075J
1764.533	10.428	1945494	TRIAL	n/a	n/a	n/a	-999	18	[0, 0, 0]	n/a	FR1	1	R1075J
1774.961	0.005	1955922	COUNTDOWN_END	n/a	n/a	n/a	-999	18	[0, 0, 0]	n/a	FR1	1	R1075J
1774.966	1.6	1955927	ORIENT	n/a	n/a	n/a	-999	18	[0, 0, 0]	n/a	FR1	1	R1075J
1777.401	1.6	1958362	WORD	n/a	wordpools/wordpool_EN.txt	TANK	1	18	[0, 0, 0]	n/a	FR1	1	R1075J
1779.951	1.6	1960912	WORD	n/a	wordpools/wordpool_EN.txt	MAZE	2	18	[0, 0, 0]	n/a	FR1	1	R1075J
1782.402	1.6	1963363	WORD	n/a	wordpools/wordpool_EN.txt	CAR	3	18	[0, 0, 0]	n/a	FR1	1	R1075J
1784.918	1.6	1965879	WORD	n/a	wordpools/wordpool_EN.txt	VAN	4	18	[0, 0, 0]	n/a	FR1	1	R1075J
1787.469	1.6	1968430	WORD	n/a	wordpools/wordpool_EN.txt	SAIL	5	18	[0, 0, 0]	n/a	FR1	1	R1075J
1790.019	1.6	1970980	WORD	n/a	wordpools/wordpool_EN.txt	BOARD	6	18	[0, 0, 0]	n/a	FR1	1	R1075J
1792.636	1.6	1973597	WORD	n/a	wordpools/wordpool_EN.txt	SOUP	7	18	[0, 0, 0]	n/a	FR1	1	R1075J
1795.12	1.6	1976081	WORD	n/a	wordpools/wordpool_EN.txt	TOY	8	18	[0, 0, 0]	n/a	FR1	1	R1075J
1797.587	1.6	1978548	WORD	n/a	wordpools/wordpool_EN.txt	BRICK	9	18	[0, 0, 0]	n/a	FR1	1	R1075J
1800.087	1.6	1981048	WORD	n/a	wordpools/wordpool_EN.txt	JAIL	10	18	[0, 0, 0]	n/a	FR1	1	R1075J
1802.488	1.6	1983449	WORD	n/a	wordpools/wordpool_EN.txt	STORM	11	18	[0, 0, 0]	n/a	FR1	1	R1075J
1805.02	1.6	1985981	WORD	n/a	wordpools/wordpool_EN.txt	BANK	12	18	[0, 0, 0]	n/a	FR1	1	R1075J
1806.637	0.001	1987598	DISTRACT_START	n/a	n/a	n/a	-999	18	[0, 0, 0]	n/a	FR1	1	R1075J
1806.638	0.016	1987599	START	n/a	n/a	n/a	-999	18	[-999, -999, -999]	n/a	FR1	1	R1075J
1806.654	5.885	1987615	PROB	5.86	n/a	n/a	-999	18	[8, 3, 2]	13.0	FR1	1	R1075J
1812.539	2.667	1993500	PROB	2.639	n/a	n/a	-999	18	[2, 1, 5]	8.0	FR1	1	R1075J
1815.206	3.666	1996167	PROB	3.635	n/a	n/a	-999	18	[4, 8, 6]	18.0	FR1	1	R1075J
1818.872	2.718	1999833	PROB	2.69	n/a	n/a	-999	18	[6, 7, 5]	18.0	FR1	1	R1075J
1821.59	2.784	2002551	PROB	2.756	n/a	n/a	-999	18	[9, 5, 6]	20.0	FR1	1	R1075J
1824.374	4.036	2005335	PROB	4.036	n/a	n/a	-999	18	[5, 8, 1]	14.0	FR1	1	R1075J
1828.41	0.014	2009371	STOP	n/a	n/a	n/a	-999	18	[-999, -999, -999]	n/a	FR1	1	R1075J
1828.424	1.217	2009385	DISTRACT_END	n/a	n/a	n/a	-999	18	[0, 0, 0]	n/a	FR1	1	R1075J
1829.641	4.186	2010602	REC_START	n/a	n/a	n/a	-999	18	[0, 0, 0]	n/a	FR1	1	R1075J
1833.827	2.967	2014788	REC_WORD	4.186	n/a	CAR	3	18	[0, 0, 0]	n/a	FR1	1	R1075J
1836.794	1.379	2017755	REC_WORD	7.153	n/a	VAN	4	18	[0, 0, 0]	n/a	FR1	1	R1075J
1838.173	0.471	2019134	REC_WORD	8.532	n/a	BOAT	-999	18	[0, 0, 0]	n/a	FR1	1	R1075J
1838.644	9.323	2019605	REC_WORD	9.003	n/a	MAZE	2	18	[0, 0, 0]	n/a	FR1	1	R1075J
1847.967	7.158	2028928	REC_WORD	18.326	n/a	SAIL	5	18	[0, 0, 0]	n/a	FR1	1	R1075J
1855.125	4.526	2036086	REC_WORD	25.484	n/a	BOARD	6	18	[0, 0, 0]	n/a	FR1	1	R1075J
1859.651	2.16	2040612	REC_END	n/a	n/a	n/a	-999	18	[0, 0, 0]	n/a	FR1	1	R1075J
1861.811	0.0	2042772	TRIAL	n/a	n/a	n/a	-999	19	[0, 0, 0]	n/a	FR1	1	R1075J
1861.811	10.0	2042772	COUNTDOWN_START	n/a	n/a	n/a	-999	19	[0, 0, 0]	n/a	FR1	1	R1075J
1872.239	0.007	2053200	COUNTDOWN_END	n/a	n/a	n/a	-999	19	[0, 0, 0]	n/a	FR1	1	R1075J
1872.246	1.6	2053207	ORIENT	n/a	n/a	n/a	-999	19	[0, 0, 0]	n/a	FR1	1	R1075J
1874.779	1.6	2055740	WORD	n/a	wordpools/wordpool_EN.txt	BREAD	1	19	[0, 0, 0]	n/a	FR1	1	R1075J
1877.23	1.6	2058191	WORD	n/a	wordpools/wordpool_EN.txt	SPOON	2	19	[0, 0, 0]	n/a	FR1	1	R1075J
1879.68	1.6	2060641	WORD	n/a	wordpools/wordpool_EN.txt	RAT	3	19	[0, 0, 0]	n/a	FR1	1	R1075J
1882.081	1.6	2063042	WORD	n/a	wordpools/wordpool_EN.txt	CLAY	4	19	[0, 0, 0]	n/a	FR1	1	R1075J
1884.581	1.6	2065542	WORD	n/a	wordpools/wordpool_EN.txt	PIPE	5	19	[0, 0, 0]	n/a	FR1	1	R1075J
1887.182	1.6	2068143	WORD	n/a	wordpools/wordpool_EN.txt	PIT	6	19	[0, 0, 0]	n/a	FR1	1	R1075J
1889.681	1.6	2070642	WORD	n/a	wordpools/wordpool_EN.txt	CUP	7	19	[0, 0, 0]	n/a	FR1	1	R1075J
1892.266	1.6	2073227	WORD	n/a	wordpools/wordpool_EN.txt	HAND	8	19	[0, 0, 0]	n/a	FR1	1	R1075J
1894.698	1.6	2075659	WORD	n/a	wordpools/wordpool_EN.txt	PEACH	9	19	[0, 0, 0]	n/a	FR1	1	R1075J
1897.233	1.6	2078194	WORD	n/a	wordpools/wordpool_EN.txt	STONE	10	19	[0, 0, 0]	n/a	FR1	1	R1075J
1899.649	1.6	2080610	WORD	n/a	wordpools/wordpool_EN.txt	FLUTE	11	19	[0, 0, 0]	n/a	FR1	1	R1075J
1902.234	1.6	2083195	WORD	n/a	wordpools/wordpool_EN.txt	TOE	12	19	[0, 0, 0]	n/a	FR1	1	R1075J
1903.849	0.001	2084810	DISTRACT_START	n/a	n/a	n/a	-999	19	[0, 0, 0]	n/a	FR1	1	R1075J
1903.85	0.016	2084811	START	n/a	n/a	n/a	-999	19	[-999, -999, -999]	n/a	FR1	1	R1075J
1903.866	3.934	2084827	PROB	3.9	n/a	n/a	-999	19	[7, 8, 1]	16.0	FR1	1	R1075J
1907.8	2.067	2088761	PROB	2.037	n/a	n/a	-999	19	[7, 3, 2]	12.0	FR1	1	R1075J
1909.867	3.251	2090828	PROB	3.219	n/a	n/a	-999	19	[8, 2, 4]	14.0	FR1	1	R1075J
1913.118	2.484	2094079	PROB	2.456	n/a	n/a	-999	19	[8, 9, 4]	21.0	FR1	1	R1075J
1915.602	2.55	2096563	PROB	2.524	n/a	n/a	-999	19	[7, 8, 7]	22.0	FR1	1	R1075J
1918.152	3.351	2099113	PROB	3.326	n/a	n/a	-999	19	[5, 8, 1]	14.0	FR1	1	R1075J
1921.503	3.71	2102464	PROB	3.71	n/a	n/a	-999	19	[9, 3, 7]	19.0	FR1	1	R1075J
1925.213	0.007	2106174	STOP	n/a	n/a	n/a	-999	19	[-999, -999, -999]	n/a	FR1	1	R1075J
1925.22	1.117	2106181	DISTRACT_END	n/a	n/a	n/a	-999	19	[0, 0, 0]	n/a	FR1	1	R1075J
1926.337	2.497	2107298	REC_START	n/a	n/a	n/a	-999	19	[0, 0, 0]	n/a	FR1	1	R1075J
1928.834	8.763	2109795	REC_WORD	2.497	n/a	SPOON	2	19	[0, 0, 0]	n/a	FR1	1	R1075J
1937.597	18.752	2118558	REC_WORD	11.26	n/a	OAR	-999	19	[0, 0, 0]	n/a	FR1	1	R1075J
1956.349	2.441	2137310	REC_END	n/a	n/a	n/a	-999	19	[0, 0, 0]	n/a	FR1	1	R1075J
1958.79	10.0	2139751	COUNTDOWN_START	n/a	n/a	n/a	-999	20	[0, 0, 0]	n/a	FR1	1	R1075J
1958.79	10.428	2139751	TRIAL	n/a	n/a	n/a	-999	20	[0, 0, 0]	n/a	FR1	1	R1075J
1969.218	0.007	2150179	COUNTDOWN_END	n/a	n/a	n/a	-999	20	[0, 0, 0]	n/a	FR1	1	R1075J
1969.225	1.6	2150186	ORIENT	n/a	n/a	n/a	-999	20	[0, 0, 0]	n/a	FR1	1	R1075J
1971.725	1.6	2152686	WORD	n/a	wordpools/wordpool_EN.txt	JET	1	20	[0, 0, 0]	n/a	FR1	1	R1075J
1974.309	1.6	2155270	WORD	n/a	wordpools/wordpool_EN.txt	FILM	2	20	[0, 0, 0]	n/a	FR1	1	R1075J
1976.725	1.6	2157686	WORD	n/a	wordpools/wordpool_EN.txt	MOLE	3	20	[0, 0, 0]	n/a	FR1	1	R1075J
1979.26	1.6	2160221	WORD	n/a	wordpools/wordpool_EN.txt	BOAT	4	20	[0, 0, 0]	n/a	FR1	1	R1075J
1981.859	1.6	2162820	WORD	n/a	wordpools/wordpool_EN.txt	INK	5	20	[0, 0, 0]	n/a	FR1	1	R1075J
1984.41	1.6	2165371	WORD	n/a	wordpools/wordpool_EN.txt	BOMB	6	20	[0, 0, 0]	n/a	FR1	1	R1075J
1986.943	1.6	2167904	WORD	n/a	wordpools/wordpool_EN.txt	KITE	7	20	[0, 0, 0]	n/a	FR1	1	R1075J
1989.327	1.6	2170288	WORD	n/a	wordpools/wordpool_EN.txt	SOAP	8	20	[0, 0, 0]	n/a	FR1	1	R1075J
1991.894	1.6	2172855	WORD	n/a	wordpools/wordpool_EN.txt	SPARK	9	20	[0, 0, 0]	n/a	FR1	1	R1075J
1994.361	1.6	2175322	WORD	n/a	wordpools/wordpool_EN.txt	WHEEL	10	20	[0, 0, 0]	n/a	FR1	1	R1075J
1996.944	1.6	2177905	WORD	n/a	wordpools/wordpool_EN.txt	POND	11	20	[0, 0, 0]	n/a	FR1	1	R1075J
1999.429	1.6	2180390	WORD	n/a	wordpools/wordpool_EN.txt	NET	12	20	[0, 0, 0]	n/a	FR1	1	R1075J
2001.045	0.001	2182006	DISTRACT_START	n/a	n/a	n/a	-999	20	[0, 0, 0]	n/a	FR1	1	R1075J
2001.046	0.016	2182007	START	n/a	n/a	n/a	-999	20	[-999, -999, -999]	n/a	FR1	1	R1075J
2001.062	3.9	2182023	PROB	3.867	n/a	n/a	-999	20	[5, 5, 7]	17.0	FR1	1	R1075J
2004.962	3.901	2185923	PROB	3.879	n/a	n/a	-999	20	[6, 2, 6]	14.0	FR1	1	R1075J
2008.863	1.934	2189824	PROB	1.907	n/a	n/a	-999	20	[3, 4, 5]	12.0	FR1	1	R1075J
2010.797	1.983	2191758	PROB	1.956	n/a	n/a	-999	20	[5, 6, 1]	12.0	FR1	1	R1075J
2012.78	3.9	2193741	PROB	3.877	n/a	n/a	-999	20	[6, 2, 7]	15.0	FR1	1	R1075J
2016.68	3.384	2197641	PROB	3.353	n/a	n/a	-999	20	[4, 5, 6]	15.0	FR1	1	R1075J
2020.064	3.529	2201025	PROB	3.529	n/a	n/a	-999	20	[5, 2, 7]	14.0	FR1	1	R1075J
2023.593	0.006	2204554	STOP	n/a	n/a	n/a	-999	20	[-999, -999, -999]	n/a	FR1	1	R1075J
2023.599	1.033	2204560	DISTRACT_END	n/a	n/a	n/a	-999	20	[0, 0, 0]	n/a	FR1	1	R1075J
2024.632	9.835	2205593	REC_START	n/a	n/a	n/a	-999	20	[0, 0, 0]	n/a	FR1	1	R1075J
2034.467	3.538	2215428	REC_WORD	9.835	n/a	SPOOL	-999	20	[0, 0, 0]	n/a	FR1	1	R1075J
2038.005	7.781	2218966	REC_WORD	13.373	n/a	KITE	7	20	[0, 0, 0]	n/a	FR1	1	R1075J
2045.786	6.403	2226747	REC_WORD	21.154	n/a	VAN	-999	20	[0, 0, 0]	n/a	FR1	1	R1075J
2052.189	2.455	2233150	REC_WORD_VV	27.557	n/a	<>	-999	20	[0, 0, 0]	n/a	FR1	1	R1075J
2054.644	2.224	2235605	REC_END	n/a	n/a	n/a	-999	20	[0, 0, 0]	n/a	FR1	1	R1075J
2056.868	10.0	2237829	COUNTDOWN_START	n/a	n/a	n/a	-999	21	[0, 0, 0]	n/a	FR1	1	R1075J
2056.869	10.427	2237830	TRIAL	n/a	n/a	n/a	-999	21	[0, 0, 0]	n/a	FR1	1	R1075J
2067.296	0.009	2248257	COUNTDOWN_END	n/a	n/a	n/a	-999	21	[0, 0, 0]	n/a	FR1	1	R1075J
2067.305	1.6	2248266	ORIENT	n/a	n/a	n/a	-999	21	[0, 0, 0]	n/a	FR1	1	R1075J
2069.787	1.6	2250748	WORD	n/a	wordpools/wordpool_EN.txt	DITCH	1	21	[0, 0, 0]	n/a	FR1	1	R1075J
2072.372	1.6	2253333	WORD	n/a	wordpools/wordpool_EN.txt	CHIN	2	21	[0, 0, 0]	n/a	FR1	1	R1075J
2074.838	1.6	2255799	WORD	n/a	wordpools/wordpool_EN.txt	BRIDGE	3	21	[0, 0, 0]	n/a	FR1	1	R1075J
2077.256	1.6	2258217	WORD	n/a	wordpools/wordpool_EN.txt	TRUCK	4	21	[0, 0, 0]	n/a	FR1	1	R1075J
2079.705	1.6	2260666	WORD	n/a	wordpools/wordpool_EN.txt	SMOKE	5	21	[0, 0, 0]	n/a	FR1	1	R1075J
2082.123	1.6	2263084	WORD	n/a	wordpools/wordpool_EN.txt	STEAM	6	21	[0, 0, 0]	n/a	FR1	1	R1075J
2084.523	1.6	2265484	WORD	n/a	wordpools/wordpool_EN.txt	SLIME	7	21	[0, 0, 0]	n/a	FR1	1	R1075J
2087.073	1.6	2268034	WORD	n/a	wordpools/wordpool_EN.txt	SHOE	8	21	[0, 0, 0]	n/a	FR1	1	R1075J
2089.49	1.6	2270451	WORD	n/a	wordpools/wordpool_EN.txt	BUSH	9	21	[0, 0, 0]	n/a	FR1	1	R1075J
2092.091	1.6	2273052	WORD	n/a	wordpools/wordpool_EN.txt	BARN	10	21	[0, 0, 0]	n/a	FR1	1	R1075J
2094.524	1.6	2275485	WORD	n/a	wordpools/wordpool_EN.txt	ROAD	11	21	[0, 0, 0]	n/a	FR1	1	R1075J
2097.108	1.6	2278069	WORD	n/a	wordpools/wordpool_EN.txt	FORK	12	21	[0, 0, 0]	n/a	FR1	1	R1075J
2098.724	0.001	2279685	DISTRACT_START	n/a	n/a	n/a	-999	21	[0, 0, 0]	n/a	FR1	1	R1075J
2098.725	0.016	2279686	START	n/a	n/a	n/a	-999	21	[-999, -999, -999]	n/a	FR1	1	R1075J
2098.741	3.435	2279702	PROB	3.409	n/a	n/a	-999	21	[1, 2, 9]	12.0	FR1	1	R1075J
2102.176	3.216	2283137	PROB	3.182	n/a	n/a	-999	21	[2, 5, 8]	15.0	FR1	1	R1075J
2105.392	2.65	2286353	PROB	2.629	n/a	n/a	-999	21	[4, 6, 3]	13.0	FR1	1	R1075J
2108.042	3.485	2289003	PROB	3.451	n/a	n/a	-999	21	[6, 5, 2]	13.0	FR1	1	R1075J
2111.527	2.65	2292488	PROB	2.623	n/a	n/a	-999	21	[2, 2, 9]	13.0	FR1	1	R1075J
2114.177	3.1	2295138	PROB	3.076	n/a	n/a	-999	21	[8, 6, 3]	17.0	FR1	1	R1075J
2117.277	4.857	2298238	PROB	4.857	n/a	n/a	-999	21	[2, 6, 6]	14.0	FR1	1	R1075J
2122.134	0.011	2303095	STOP	n/a	n/a	n/a	-999	21	[-999, -999, -999]	n/a	FR1	1	R1075J
2122.145	1.067	2303106	DISTRACT_END	n/a	n/a	n/a	-999	21	[0, 0, 0]	n/a	FR1	1	R1075J
2123.212	3.902	2304173	REC_START	n/a	n/a	n/a	-999	21	[0, 0, 0]	n/a	FR1	1	R1075J
2127.114	1.063	2308075	REC_WORD	3.902	n/a	DITCH	1	21	[0, 0, 0]	n/a	FR1	1	R1075J
2128.177	3.759	2309138	REC_WORD	4.965	n/a	BARN	10	21	[0, 0, 0]	n/a	FR1	1	R1075J
2131.936	13.799	2312897	REC_WORD	8.724	n/a	TRUCK	4	21	[0, 0, 0]	n/a	FR1	1	R1075J
2145.735	7.489	2326696	REC_WORD	22.523	n/a	SHOE	8	21	[0, 0, 0]	n/a	FR1	1	R1075J
2153.224	2.341	2334185	REC_END	n/a	n/a	n/a	-999	21	[0, 0, 0]	n/a	FR1	1	R1075J
2155.565	10.0	2336526	COUNTDOWN_START	n/a	n/a	n/a	-999	22	[0, 0, 0]	n/a	FR1	1	R1075J
2155.566	10.427	2336527	TRIAL	n/a	n/a	n/a	-999	22	[0, 0, 0]	n/a	FR1	1	R1075J
2165.993	0.006	2346954	COUNTDOWN_END	n/a	n/a	n/a	-999	22	[0, 0, 0]	n/a	FR1	1	R1075J
2165.999	1.6	2346960	ORIENT	n/a	n/a	n/a	-999	22	[0, 0, 0]	n/a	FR1	1	R1075J
2168.434	1.6	2349395	WORD	n/a	wordpools/wordpool_EN.txt	DOG	1	22	[0, 0, 0]	n/a	FR1	1	R1075J
2170.933	1.6	2351894	WORD	n/a	wordpools/wordpool_EN.txt	LEG	2	22	[0, 0, 0]	n/a	FR1	1	R1075J
2173.534	1.6	2354495	WORD	n/a	wordpools/wordpool_EN.txt	STOOL	3	22	[0, 0, 0]	n/a	FR1	1	R1075J
2175.95	1.6	2356911	WORD	n/a	wordpools/wordpool_EN.txt	PLATE	4	22	[0, 0, 0]	n/a	FR1	1	R1075J
2178.418	1.6	2359379	WORD	n/a	wordpools/wordpool_EN.txt	CHALK	5	22	[0, 0, 0]	n/a	FR1	1	R1075J
2180.984	1.6	2361945	WORD	n/a	wordpools/wordpool_EN.txt	TRAY	6	22	[0, 0, 0]	n/a	FR1	1	R1075J
2183.402	1.6	2364363	WORD	n/a	wordpools/wordpool_EN.txt	WOOD	7	22	[0, 0, 0]	n/a	FR1	1	R1075J
2185.985	1.6	2366946	WORD	n/a	wordpools/wordpool_EN.txt	GLASS	8	22	[0, 0, 0]	n/a	FR1	1	R1075J
2188.619	1.6	2369580	WORD	n/a	wordpools/wordpool_EN.txt	STAIR	9	22	[0, 0, 0]	n/a	FR1	1	R1075J
2191.187	1.6	2372148	WORD	n/a	wordpools/wordpool_EN.txt	CROWN	10	22	[0, 0, 0]	n/a	FR1	1	R1075J
2193.703	1.6	2374664	WORD	n/a	wordpools/wordpool_EN.txt	SLUSH	11	22	[0, 0, 0]	n/a	FR1	1	R1075J
2196.304	1.6	2377265	WORD	n/a	wordpools/wordpool_EN.txt	SOCK	12	22	[0, 0, 0]	n/a	FR1	1	R1075J
2197.92	0.001	2378881	DISTRACT_START	n/a	n/a	n/a	-999	22	[0, 0, 0]	n/a	FR1	1	R1075J
2197.921	0.016	2378882	START	n/a	n/a	n/a	-999	22	[-999, -999, -999]	n/a	FR1	1	R1075J
2197.937	2.733	2378898	PROB	2.712	n/a	n/a	-999	22	[1, 1, 9]	11.0	FR1	1	R1075J
2200.67	3.935	2381631	PROB	3.908	n/a	n/a	-999	22	[3, 8, 8]	19.0	FR1	1	R1075J
2204.605	3.784	2385566	PROB	3.749	n/a	n/a	-999	22	[9, 4, 9]	23.0	FR1	1	R1075J
2208.389	2.867	2389350	PROB	2.837	n/a	n/a	-999	22	[6, 1, 7]	14.0	FR1	1	R1075J
2211.256	3.15	2392217	PROB	3.129	n/a	n/a	-999	22	[5, 4, 7]	16.0	FR1	1	R1075J
2214.406	2.45	2395367	PROB	2.418	n/a	n/a	-999	22	[6, 4, 4]	14.0	FR1	1	R1075J
2216.856	2.12	2397817	PROB	2.12	n/a	n/a	-999	22	[3, 7, 2]	12.0	FR1	1	R1075J
2218.976	0.013	2399937	STOP	n/a	n/a	n/a	-999	22	[-999, -999, -999]	n/a	FR1	1	R1075J
2218.989	1.051	2399950	DISTRACT_END	n/a	n/a	n/a	-999	22	[0, 0, 0]	n/a	FR1	1	R1075J
2220.04	6.008	2401001	REC_START	n/a	n/a	n/a	-999	22	[0, 0, 0]	n/a	FR1	1	R1075J
2226.048	5.407	2407009	REC_WORD_VV	6.008	n/a	<>	-999	22	[0, 0, 0]	n/a	FR1	1	R1075J
2231.455	0.725	2412416	REC_WORD	11.415	n/a	GLASS	8	22	[0, 0, 0]	n/a	FR1	1	R1075J
2232.18	5.533	2413141	REC_WORD	12.14	n/a	LIME	-999	22	[0, 0, 0]	n/a	FR1	1	R1075J
2237.713	12.337	2418674	REC_WORD	17.673	n/a	SHOE	-999	22	[0, 0, 0]	n/a	FR1	1	R1075J
2250.05	2.378	2431011	REC_END	n/a	n/a	n/a	-999	22	[0, 0, 0]	n/a	FR1	1	R1075J
2252.428	0.0	2433389	TRIAL	n/a	n/a	n/a	-999	23	[0, 0, 0]	n/a	FR1	1	R1075J
2252.428	10.0	2433389	COUNTDOWN_START	n/a	n/a	n/a	-999	23	[0, 0, 0]	n/a	FR1	1	R1075J
2262.856	0.005	2443817	COUNTDOWN_END	n/a	n/a	n/a	-999	23	[0, 0, 0]	n/a	FR1	1	R1075J
2262.861	1.6	2443822	ORIENT	n/a	n/a	n/a	-999	23	[0, 0, 0]	n/a	FR1	1	R1075J
2265.379	1.6	2446340	WORD	n/a	wordpools/wordpool_EN.txt	SCHOOL	1	23	[0, 0, 0]	n/a	FR1	1	R1075J
2267.812	1.6	2448773	WORD	n/a	wordpools/wordpool_EN.txt	DRESS	2	23	[0, 0, 0]	n/a	FR1	1	R1075J
2270.247	1.6	2451208	WORD	n/a	wordpools/wordpool_EN.txt	HORN	3	23	[0, 0, 0]	n/a	FR1	1	R1075J
2272.846	1.6	2453807	WORD	n/a	wordpools/wordpool_EN.txt	ROOF	4	23	[0, 0, 0]	n/a	FR1	1	R1075J
2275.43	1.6	2456391	WORD	n/a	wordpools/wordpool_EN.txt	STREET	5	23	[0, 0, 0]	n/a	FR1	1	R1075J
2278.013	1.6	2458974	WORD	n/a	wordpools/wordpool_EN.txt	SLEEVE	6	23	[0, 0, 0]	n/a	FR1	1	R1075J
2280.415	1.6	2461376	WORD	n/a	wordpools/wordpool_EN.txt	DART	7	23	[0, 0, 0]	n/a	FR1	1	R1075J
2282.864	1.6	2463825	WORD	n/a	wordpools/wordpool_EN.txt	THUMB	8	23	[0, 0, 0]	n/a	FR1	1	R1075J
2285.332	1.6	2466293	WORD	n/a	wordpools/wordpool_EN.txt	PEN	9	23	[0, 0, 0]	n/a	FR1	1	R1075J
2287.848	1.6	2468809	WORD	n/a	wordpools/wordpool_EN.txt	VEST	10	23	[0, 0, 0]	n/a	FR1	1	R1075J
2290.232	1.6	2471193	WORD	n/a	wordpools/wordpool_EN.txt	STICK	11	23	[0, 0, 0]	n/a	FR1	1	R1075J
2292.615	1.6	2473576	WORD	n/a	wordpools/wordpool_EN.txt	PURSE	12	23	[0, 0, 0]	n/a	FR1	1	R1075J
2294.233	0.0	2475194	DISTRACT_START	n/a	n/a	n/a	-999	23	[0, 0, 0]	n/a	FR1	1	R1075J
2294.233	0.016	2475194	START	n/a	n/a	n/a	-999	23	[-999, -999, -999]	n/a	FR1	1	R1075J
2294.249	3.733	2475210	PROB	3.708	n/a	n/a	-999	23	[3, 3, 8]	14.0	FR1	1	R1075J
2297.982	2.884	2478943	PROB	2.862	n/a	n/a	-999	23	[1, 5, 3]	9.0	FR1	1	R1075J
2300.866	3.718	2481827	PROB	3.691	n/a	n/a	-999	23	[6, 2, 3]	11.0	FR1	1	R1075J
2304.584	2.95	2485545	PROB	2.917	n/a	n/a	-999	23	[3, 9, 2]	14.0	FR1	1	R1075J
2307.534	2.551	2488495	PROB	2.518	n/a	n/a	-999	23	[1, 9, 4]	14.0	FR1	1	R1075J
2310.085	2.484	2491046	PROB	2.448	n/a	n/a	-999	23	[6, 2, 4]	12.0	FR1	1	R1075J
2312.569	3.508	2493530	PROB	3.508	n/a	n/a	-999	23	[2, 7, 6]	15.0	FR1	1	R1075J
2316.077	0.008	2497038	STOP	n/a	n/a	n/a	-999	23	[-999, -999, -999]	n/a	FR1	1	R1075J
2316.085	1.067	2497046	DISTRACT_END	n/a	n/a	n/a	-999	23	[0, 0, 0]	n/a	FR1	1	R1075J
2317.152	3.462	2498113	REC_START	n/a	n/a	n/a	-999	23	[0, 0, 0]	n/a	FR1	1	R1075J
2320.614	18.236	2501575	REC_WORD_VV	3.462	n/a	<>	-999	23	[0, 0, 0]	n/a	FR1	1	R1075J
2338.85	2.65	2519811	REC_WORD	21.698	n/a	PAN	-999	23	[0, 0, 0]	n/a	FR1	1	R1075J
2341.5	5.669	2522461	REC_WORD	24.348	n/a	SPOON	-999	23	[0, 0, 0]	n/a	FR1	1	R1075J
2347.169	2.337	2528130	REC_END	n/a	n/a	n/a	-999	23	[0, 0, 0]	n/a	FR1	1	R1075J
2349.506	0.0	2530467	TRIAL	n/a	n/a	n/a	-999	24	[0, 0, 0]	n/a	FR1	1	R1075J
2349.506	10.0	2530467	COUNTDOWN_START	n/a	n/a	n/a	-999	24	[0, 0, 0]	n/a	FR1	1	R1075J
2359.934	0.006	2540895	COUNTDOWN_END	n/a	n/a	n/a	-999	24	[0, 0, 0]	n/a	FR1	1	R1075J
2359.94	1.6	2540901	ORIENT	n/a	n/a	n/a	-999	24	[0, 0, 0]	n/a	FR1	1	R1075J
2362.408	1.6	2543369	WORD	n/a	wordpools/wordpool_EN.txt	BENCH	1	24	[0, 0, 0]	n/a	FR1	1	R1075J
2365.024	1.6	2545985	WORD	n/a	wordpools/wordpool_EN.txt	STRAW	2	24	[0, 0, 0]	n/a	FR1	1	R1075J
2367.624	1.6	2548585	WORD	n/a	wordpools/wordpool_EN.txt	YARD	3	24	[0, 0, 0]	n/a	FR1	1	R1075J
2370.142	1.6	2551103	WORD	n/a	wordpools/wordpool_EN.txt	FOOT	4	24	[0, 0, 0]	n/a	FR1	1	R1075J
2372.725	1.6	2553686	WORD	n/a	wordpools/wordpool_EN.txt	SHIRT	5	24	[0, 0, 0]	n/a	FR1	1	R1075J
2375.143	1.6	2556104	WORD	n/a	wordpools/wordpool_EN.txt	BOWL	6	24	[0, 0, 0]	n/a	FR1	1	R1075J
2377.675	1.6	2558636	WORD	n/a	wordpools/wordpool_EN.txt	FROG	7	24	[0, 0, 0]	n/a	FR1	1	R1075J
2380.277	1.6	2561238	WORD	n/a	wordpools/wordpool_EN.txt	ROSE	8	24	[0, 0, 0]	n/a	FR1	1	R1075J
2382.776	1.6	2563737	WORD	n/a	wordpools/wordpool_EN.txt	DOOR	9	24	[0, 0, 0]	n/a	FR1	1	R1075J
2385.377	1.6	2566338	WORD	n/a	wordpools/wordpool_EN.txt	BRUSH	10	24	[0, 0, 0]	n/a	FR1	1	R1075J
2387.993	1.6	2568954	WORD	n/a	wordpools/wordpool_EN.txt	CHAIR	11	24	[0, 0, 0]	n/a	FR1	1	R1075J
2390.445	1.6	2571406	WORD	n/a	wordpools/wordpool_EN.txt	TIE	12	24	[0, 0, 0]	n/a	FR1	1	R1075J
2392.061	0.001	2573022	DISTRACT_START	n/a	n/a	n/a	-999	24	[0, 0, 0]	n/a	FR1	1	R1075J
2392.062	0.016	2573023	START	n/a	n/a	n/a	-999	24	[-999, -999, -999]	n/a	FR1	1	R1075J
2392.078	3.699	2573039	PROB	3.674	n/a	n/a	-999	24	[2, 7, 1]	10.0	FR1	1	R1075J
2395.777	2.435	2576738	PROB	2.4	n/a	n/a	-999	24	[1, 3, 1]	5.0	FR1	1	R1075J
2398.212	2.084	2579173	PROB	2.061	n/a	n/a	-999	24	[6, 4, 1]	11.0	FR1	1	R1075J
2400.296	4.1	2581257	PROB	4.072	n/a	n/a	-999	24	[6, 5, 7]	18.0	FR1	1	R1075J
2404.396	1.867	2585357	PROB	1.844	n/a	n/a	-999	24	[3, 7, 2]	12.0	FR1	1	R1075J
2406.263	2.967	2587224	PROB	2.938	n/a	n/a	-999	24	[2, 5, 5]	12.0	FR1	1	R1075J
2409.23	3.946	2590191	PROB	3.946	n/a	n/a	-999	24	[5, 7, 4]	16.0	FR1	1	R1075J
2413.176	0.004	2594137	STOP	n/a	n/a	n/a	-999	24	[-999, -999, -999]	n/a	FR1	1	R1075J
2413.18	1.102	2594141	DISTRACT_END	n/a	n/a	n/a	-999	24	[0, 0, 0]	n/a	FR1	1	R1075J
2414.282	19.423	2595243	REC_START	n/a	n/a	n/a	-999	24	[0, 0, 0]	n/a	FR1	1	R1075J
2433.705	0.511	2614666	REC_WORD	19.423	n/a	CROW	-999	24	[0, 0, 0]	n/a	FR1	1	R1075J
2434.216	0.867	2615177	REC_WORD	19.934	n/a	CROW	-999	24	[0, 0, 0]	n/a	FR1	1	R1075J
2435.083	0.488	2616044	REC_WORD_VV	20.801	n/a	<>	-999	24	[0, 0, 0]	n/a	FR1	1	R1075J
2435.571	7.05	2616532	REC_WORD	21.289	n/a	GOLD	-999	24	[0, 0, 0]	n/a	FR1	1	R1075J
2442.621	1.673	2623582	REC_WORD	28.339	n/a	PORCH	-999	24	[0, 0, 0]	n/a	FR1	1	R1075J
2444.294	1.958	2625255	REC_END	n/a	n/a	n/a	-999	24	[0, 0, 0]	n/a	FR1	1	R1075J
2446.252	0.0	2627213	TRIAL	n/a	n/a	n/a	-999	25	[0, 0, 0]	n/a	FR1	1	R1075J
2446.252	10.0	2627213	COUNTDOWN_START	n/a	n/a	n/a	-999	25	[0, 0, 0]	n/a	FR1	1	R1075J
2456.68	0.005	2637641	COUNTDOWN_END	n/a	n/a	n/a	-999	25	[0, 0, 0]	n/a	FR1	1	R1075J
2456.685	1.6	2637646	ORIENT	n/a	n/a	n/a	-999	25	[0, 0, 0]	n/a	FR1	1	R1075J
2459.303	1.6	2640264	WORD	n/a	wordpools/wordpool_EN.txt	STRING	1	25	[0, 0, 0]	n/a	FR1	1	R1075J
2461.886	1.6	2642847	WORD	n/a	wordpools/wordpool_EN.txt	CLOUD	2	25	[0, 0, 0]	n/a	FR1	1	R1075J
2464.337	1.6	2645298	WORD	n/a	wordpools/wordpool_EN.txt	HOOK	3	25	[0, 0, 0]	n/a	FR1	1	R1075J
2466.936	1.6	2647897	WORD	n/a	wordpools/wordpool_EN.txt	PEA	4	25	[0, 0, 0]	n/a	FR1	1	R1075J
2469.338	1.6	2650299	WORD	n/a	wordpools/wordpool_EN.txt	TREE	5	25	[0, 0, 0]	n/a	FR1	1	R1075J
2471.904	1.6	2652865	WORD	n/a	wordpools/wordpool_EN.txt	HEN	6	25	[0, 0, 0]	n/a	FR1	1	R1075J
2474.355	1.6	2655316	WORD	n/a	wordpools/wordpool_EN.txt	OWL	7	25	[0, 0, 0]	n/a	FR1	1	R1075J
2476.888	1.6	2657849	WORD	n/a	wordpools/wordpool_EN.txt	PIN	8	25	[0, 0, 0]	n/a	FR1	1	R1075J
2479.272	1.6	2660233	WORD	n/a	wordpools/wordpool_EN.txt	PLANE	9	25	[0, 0, 0]	n/a	FR1	1	R1075J
2481.822	1.6	2662783	WORD	n/a	wordpools/wordpool_EN.txt	SKY	10	25	[0, 0, 0]	n/a	FR1	1	R1075J
2484.407	1.6	2665368	WORD	n/a	wordpools/wordpool_EN.txt	NEST	11	25	[0, 0, 0]	n/a	FR1	1	R1075J
2486.823	1.6	2667784	WORD	n/a	wordpools/wordpool_EN.txt	SQUARE	12	25	[0, 0, 0]	n/a	FR1	1	R1075J
2488.441	0.0	2669402	DISTRACT_START	n/a	n/a	n/a	-999	25	[0, 0, 0]	n/a	FR1	1	R1075J
2488.441	0.016	2669402	START	n/a	n/a	n/a	-999	25	[-999, -999, -999]	n/a	FR1	1	R1075J
2488.457	4.984	2669418	PROB	4.956	n/a	n/a	-999	25	[7, 2, 4]	13.0	FR1	1	R1075J
2493.441	4.433	2674402	PROB	4.403	n/a	n/a	-999	25	[9, 5, 3]	17.0	FR1	1	R1075J
2497.874	2.435	2678835	PROB	2.395	n/a	n/a	-999	25	[7, 4, 9]	20.0	FR1	1	R1075J
2500.309	2.267	2681270	PROB	2.24	n/a	n/a	-999	25	[3, 3, 7]	13.0	FR1	1	R1075J
2502.576	2.733	2683537	PROB	2.709	n/a	n/a	-999	25	[3, 6, 8]	17.0	FR1	1	R1075J
2505.309	2.699	2686270	PROB	2.678	n/a	n/a	-999	25	[1, 6, 6]	13.0	FR1	1	R1075J
2508.008	2.133	2688969	PROB	2.133	n/a	n/a	-999	25	[9, 1, 3]	13.0	FR1	1	R1075J
2510.141	0.019	2691102	STOP	n/a	n/a	n/a	-999	25	[-999, -999, -999]	n/a	FR1	1	R1075J
2510.16	1.084	2691121	DISTRACT_END	n/a	n/a	n/a	-999	25	[0, 0, 0]	n/a	FR1	1	R1075J
2511.244	2.623	2692205	REC_START	n/a	n/a	n/a	-999	25	[0, 0, 0]	n/a	FR1	1	R1075J
2513.867	0.108	2694828	REC_WORD_VV	2.623	n/a	<>	-999	25	[0, 0, 0]	n/a	FR1	1	R1075J
2513.975	6.684	2694936	REC_WORD	2.731	n/a	SQUARE	12	25	[0, 0, 0]	n/a	FR1	1	R1075J
2520.659	0.559	2701620	REC_WORD	9.415	n/a	PITCH	-999	25	[0, 0, 0]	n/a	FR1	1	R1075J
2521.218	4.846	2702179	REC_WORD	9.974	n/a	PLANE	9	25	[0, 0, 0]	n/a	FR1	1	R1075J
2526.064	0.159	2707025	REC_WORD_VV	14.82	n/a	<>	-999	25	[0, 0, 0]	n/a	FR1	1	R1075J
2526.223	15.035	2707184	REC_WORD	14.979	n/a	SLOW	-999	25	[0, 0, 0]	n/a	FR1	1	R1075J
2541.258	22.042	2722219	REC_END	n/a	n/a	n/a	-999	25	[0, 0, 0]	n/a	FR1	1	R1075J
2563.3	0.0	2744261	SESS_END	n/a	n/a	n/a	-999	25	[0, 0, 0]	n/a	FR1	1	R1075J
