onset	duration	sample	trial_type	response_time	stim_file	item_name	serialpos	list	test	answer	experiment	session	subject
0.0	23.92	68149	SESS_START	n/a	n/a	n/a	-999	-999	[0, 0, 0]	n/a	FR1	1	R1080E
23.92	10.0	92068	COUNTDOWN_START	n/a	n/a	n/a	-999	-999	[0, 0, 0]	n/a	FR1	1	R1080E
34.348	3.692	102495	COUNTDOWN_END	n/a	n/a	n/a	-999	-999	[0, 0, 0]	n/a	FR1	1	R1080E
38.04	1.6	106187	PRACTICE_WORD	n/a	n/a	CHEST	1	-1	[0, 0, 0]	n/a	FR1	1	R1080E
40.622	1.6	108769	PRACTICE_WORD	n/a	n/a	COTTON	2	-1	[0, 0, 0]	n/a	FR1	1	R1080E
43.157	1.6	111304	PRACTICE_WORD	n/a	n/a	RING	3	-1	[0, 0, 0]	n/a	FR1	1	R1080E
45.69	1.6	113836	PRACTICE_WORD	n/a	n/a	FLOOD	4	-1	[0, 0, 0]	n/a	FR1	1	R1080E
48.29	1.6	116436	PRACTICE_WORD	n/a	n/a	IRON	5	-1	[0, 0, 0]	n/a	FR1	1	R1080E
50.892	1.6	119038	PRACTICE_WORD	n/a	n/a	CAMEL	6	-1	[0, 0, 0]	n/a	FR1	1	R1080E
53.291	1.6	121437	PRACTICE_WORD	n/a	n/a	WATCH	7	-1	[0, 0, 0]	n/a	FR1	1	R1080E
55.825	1.6	123971	PRACTICE_WORD	n/a	n/a	ATTIC	8	-1	[0, 0, 0]	n/a	FR1	1	R1080E
58.425	1.6	126571	PRACTICE_WORD	n/a	n/a	BEAM	9	-1	[0, 0, 0]	n/a	FR1	1	R1080E
60.91	1.6	129056	PRACTICE_WORD	n/a	n/a	TONGUE	10	-1	[0, 0, 0]	n/a	FR1	1	R1080E
63.476	1.6	131621	PRACTICE_WORD	n/a	n/a	RHINO	11	-1	[0, 0, 0]	n/a	FR1	1	R1080E
66.078	1.6	134223	PRACTICE_WORD	n/a	n/a	WAGON	12	-1	[0, 0, 0]	n/a	FR1	1	R1080E
67.694	0.0	135839	PRACTICE_DISTRACT_START	n/a	n/a	n/a	-999	-1	[0, 0, 0]	n/a	FR1	1	R1080E
67.694	0.016	135839	START	n/a	n/a	n/a	-999	-1	[-999, -999, -999]	n/a	FR1	1	R1080E
67.71	8.219	135855	PROB	8.184	n/a	n/a	-999	-1	[8, 4, 8]	16.0	FR1	1	R1080E
75.929	8.317	144074	PROB	8.286	n/a	n/a	-999	-1	[2, 8, 9]	19.0	FR1	1	R1080E
84.246	6.769	152390	PROB	6.769	n/a	n/a	-999	-1	[7, 4, 1]	12.0	FR1	1	R1080E
91.015	0.017	159159	STOP	n/a	n/a	n/a	-999	-1	[-999, -999, -999]	n/a	FR1	1	R1080E
91.032	0.551	159176	PRACTICE_DISTRACT_END	n/a	n/a	n/a	-999	-1	[0, 0, 0]	n/a	FR1	1	R1080E
91.583	30.516	159727	PRACTICE_REC_START	n/a	n/a	n/a	-999	-1	[0, 0, 0]	n/a	FR1	1	R1080E
122.099	15.307	190241	PRACTICE_REC_END	n/a	n/a	n/a	-999	-1	[0, 0, 0]	n/a	FR1	1	R1080E
137.406	0.0	205547	TRIAL	n/a	n/a	n/a	-999	1	[0, 0, 0]	n/a	FR1	1	R1080E
137.406	10.0	205547	COUNTDOWN_START	n/a	n/a	n/a	-999	1	[0, 0, 0]	n/a	FR1	1	R1080E
147.834	0.007	215975	COUNTDOWN_END	n/a	n/a	n/a	-999	1	[0, 0, 0]	n/a	FR1	1	R1080E
147.841	1.6	215982	ORIENT	n/a	n/a	n/a	-999	1	[0, 0, 0]	n/a	FR1	1	R1080E
150.308	1.6	218449	WORD	n/a	wordpools/wordpool_EN.txt	VINE	1	1	[0, 0, 0]	n/a	FR1	1	R1080E
152.859	1.6	221000	WORD	n/a	wordpools/wordpool_EN.txt	EAR	2	1	[0, 0, 0]	n/a	FR1	1	R1080E
155.459	1.6	223599	WORD	n/a	wordpools/wordpool_EN.txt	FOOD	3	1	[0, 0, 0]	n/a	FR1	1	R1080E
157.877	1.6	226017	WORD	n/a	wordpools/wordpool_EN.txt	HEART	4	1	[0, 0, 0]	n/a	FR1	1	R1080E
160.46	1.6	228600	WORD	n/a	wordpools/wordpool_EN.txt	BED	5	1	[0, 0, 0]	n/a	FR1	1	R1080E
162.878	1.6	231018	WORD	n/a	wordpools/wordpool_EN.txt	HOSE	6	1	[0, 0, 0]	n/a	FR1	1	R1080E
165.394	1.6	233534	WORD	n/a	wordpools/wordpool_EN.txt	TRAIN	7	1	[0, 0, 0]	n/a	FR1	1	R1080E
167.962	1.6	236102	WORD	n/a	wordpools/wordpool_EN.txt	MOUSE	8	1	[0, 0, 0]	n/a	FR1	1	R1080E
170.361	1.6	238501	WORD	n/a	wordpools/wordpool_EN.txt	SMOKE	9	1	[0, 0, 0]	n/a	FR1	1	R1080E
172.745	1.6	240885	WORD	n/a	wordpools/wordpool_EN.txt	ROOM	10	1	[0, 0, 0]	n/a	FR1	1	R1080E
175.312	1.6	243451	WORD	n/a	wordpools/wordpool_EN.txt	MOOSE	11	1	[0, 0, 0]	n/a	FR1	1	R1080E
177.914	1.6	246053	WORD	n/a	wordpools/wordpool_EN.txt	CAKE	12	1	[0, 0, 0]	n/a	FR1	1	R1080E
179.53	0.0	247669	DISTRACT_START	n/a	n/a	n/a	-999	1	[0, 0, 0]	n/a	FR1	1	R1080E
179.53	0.016	247669	START	n/a	n/a	n/a	-999	1	[-999, -999, -999]	n/a	FR1	1	R1080E
179.546	16.488	247685	PROB	16.467	n/a	n/a	-999	1	[9, 5, 2]	16.0	FR1	1	R1080E
196.034	6.182	264172	PROB	6.182	n/a	n/a	-999	1	[3, 9, 1]	13.0	FR1	1	R1080E
202.216	0.018	270354	STOP	n/a	n/a	n/a	-999	1	[-999, -999, -999]	n/a	FR1	1	R1080E
202.234	1.09	270372	DISTRACT_END	n/a	n/a	n/a	-999	1	[0, 0, 0]	n/a	FR1	1	R1080E
203.324	2.095	271462	REC_START	n/a	n/a	n/a	-999	1	[0, 0, 0]	n/a	FR1	1	R1080E
205.419	1.208	273557	REC_WORD	2.095	n/a	HEART	-999	1	[0, 0, 0]	n/a	FR1	1	R1080E
206.627	2.381	274765	REC_WORD	3.303	n/a	FOOD	-999	1	[0, 0, 0]	n/a	FR1	1	R1080E
209.008	24.318	277146	REC_WORD	5.684	n/a	CAKE	-999	1	[0, 0, 0]	n/a	FR1	1	R1080E
233.326	4.163	301462	REC_END	n/a	n/a	n/a	-999	1	[0, 0, 0]	n/a	FR1	1	R1080E
237.489	10.0	305625	COUNTDOWN_START	n/a	n/a	n/a	-999	2	[0, 0, 0]	n/a	FR1	1	R1080E
237.49	10.427	305626	TRIAL	n/a	n/a	n/a	-999	2	[0, 0, 0]	n/a	FR1	1	R1080E
247.917	0.009	316052	COUNTDOWN_END	n/a	n/a	n/a	-999	2	[0, 0, 0]	n/a	FR1	1	R1080E
247.926	1.6	316061	ORIENT	n/a	n/a	n/a	-999	2	[0, 0, 0]	n/a	FR1	1	R1080E
250.309	1.6	318444	WORD	n/a	wordpools/wordpool_EN.txt	RICE	1	2	[0, 0, 0]	n/a	FR1	1	R1080E
252.843	1.6	320978	WORD	n/a	wordpools/wordpool_EN.txt	EGG	2	2	[0, 0, 0]	n/a	FR1	1	R1080E
255.36	1.6	323495	WORD	n/a	wordpools/wordpool_EN.txt	CORD	3	2	[0, 0, 0]	n/a	FR1	1	R1080E
257.978	1.6	326113	WORD	n/a	wordpools/wordpool_EN.txt	NET	4	2	[0, 0, 0]	n/a	FR1	1	R1080E
260.477	1.6	328612	WORD	n/a	wordpools/wordpool_EN.txt	WAVE	5	2	[0, 0, 0]	n/a	FR1	1	R1080E
262.979	1.6	331114	WORD	n/a	wordpools/wordpool_EN.txt	POLE	6	2	[0, 0, 0]	n/a	FR1	1	R1080E
265.411	1.6	333545	WORD	n/a	wordpools/wordpool_EN.txt	PEA	7	2	[0, 0, 0]	n/a	FR1	1	R1080E
267.863	1.6	335997	WORD	n/a	wordpools/wordpool_EN.txt	TOAD	8	2	[0, 0, 0]	n/a	FR1	1	R1080E
270.429	1.6	338563	WORD	n/a	wordpools/wordpool_EN.txt	SHEET	9	2	[0, 0, 0]	n/a	FR1	1	R1080E
272.813	1.6	340947	WORD	n/a	wordpools/wordpool_EN.txt	CASH	10	2	[0, 0, 0]	n/a	FR1	1	R1080E
275.38	1.6	343514	WORD	n/a	wordpools/wordpool_EN.txt	HEN	11	2	[0, 0, 0]	n/a	FR1	1	R1080E
277.998	1.6	346132	WORD	n/a	wordpools/wordpool_EN.txt	COIN	12	2	[0, 0, 0]	n/a	FR1	1	R1080E
279.614	0.001	347748	DISTRACT_START	n/a	n/a	n/a	-999	2	[0, 0, 0]	n/a	FR1	1	R1080E
279.615	0.016	347749	START	n/a	n/a	n/a	-999	2	[-999, -999, -999]	n/a	FR1	1	R1080E
279.631	4.65	347765	PROB	4.621	n/a	n/a	-999	2	[5, 4, 5]	14.0	FR1	1	R1080E
284.281	5.401	352414	PROB	5.379	n/a	n/a	-999	2	[3, 8, 4]	15.0	FR1	1	R1080E
289.682	12.521	357815	PROB	12.521	n/a	n/a	-999	2	[9, 8, 8]	25.0	FR1	1	R1080E
302.203	0.016	370335	STOP	n/a	n/a	n/a	-999	2	[-999, -999, -999]	n/a	FR1	1	R1080E
302.219	1.083	370351	DISTRACT_END	n/a	n/a	n/a	-999	2	[0, 0, 0]	n/a	FR1	1	R1080E
303.302	1.636	371434	REC_START	n/a	n/a	n/a	-999	2	[0, 0, 0]	n/a	FR1	1	R1080E
304.938	1.208	373070	REC_WORD	1.636	n/a	RICE	-999	2	[0, 0, 0]	n/a	FR1	1	R1080E
306.146	1.178	374278	REC_WORD	2.844	n/a	PEA	-999	2	[0, 0, 0]	n/a	FR1	1	R1080E
307.324	1.783	375456	REC_WORD	4.022	n/a	EGG	-999	2	[0, 0, 0]	n/a	FR1	1	R1080E
309.107	4.692	377239	REC_WORD	5.805	n/a	HEN	-999	2	[0, 0, 0]	n/a	FR1	1	R1080E
313.799	1.322	381931	REC_WORD	10.497	n/a	MOUTH	-999	2	[0, 0, 0]	n/a	FR1	1	R1080E
315.121	14.061	383253	REC_WORD	11.819	n/a	TRAIN	-999	2	[0, 0, 0]	n/a	FR1	1	R1080E
329.182	1.027	397313	REC_WORD	25.88	n/a	TOAD	-999	2	[0, 0, 0]	n/a	FR1	1	R1080E
330.209	3.101	398340	REC_WORD	26.907	n/a	SHEET	-999	2	[0, 0, 0]	n/a	FR1	1	R1080E
333.31	5.381	401441	REC_END	n/a	n/a	n/a	-999	2	[0, 0, 0]	n/a	FR1	1	R1080E
338.691	0.0	406821	TRIAL	n/a	n/a	n/a	-999	3	[0, 0, 0]	n/a	FR1	1	R1080E
338.691	10.0	406821	COUNTDOWN_START	n/a	n/a	n/a	-999	3	[0, 0, 0]	n/a	FR1	1	R1080E
349.119	0.008	417249	COUNTDOWN_END	n/a	n/a	n/a	-999	3	[0, 0, 0]	n/a	FR1	1	R1080E
349.127	1.6	417257	ORIENT	n/a	n/a	n/a	-999	3	[0, 0, 0]	n/a	FR1	1	R1080E
351.576	1.6	419706	WORD	n/a	wordpools/wordpool_EN.txt	LAMP	1	3	[0, 0, 0]	n/a	FR1	1	R1080E
354.061	1.6	422191	WORD	n/a	wordpools/wordpool_EN.txt	BOX	2	3	[0, 0, 0]	n/a	FR1	1	R1080E
356.677	1.6	424807	WORD	n/a	wordpools/wordpool_EN.txt	CHAIR	3	3	[0, 0, 0]	n/a	FR1	1	R1080E
359.095	1.6	427224	WORD	n/a	wordpools/wordpool_EN.txt	PHONE	4	3	[0, 0, 0]	n/a	FR1	1	R1080E
361.661	1.6	429790	WORD	n/a	wordpools/wordpool_EN.txt	GATE	5	3	[0, 0, 0]	n/a	FR1	1	R1080E
364.13	1.6	432259	WORD	n/a	wordpools/wordpool_EN.txt	OAK	6	3	[0, 0, 0]	n/a	FR1	1	R1080E
366.629	1.6	434758	WORD	n/a	wordpools/wordpool_EN.txt	SHARK	7	3	[0, 0, 0]	n/a	FR1	1	R1080E
369.08	1.6	437209	WORD	n/a	wordpools/wordpool_EN.txt	LOCK	8	3	[0, 0, 0]	n/a	FR1	1	R1080E
371.479	1.6	439608	WORD	n/a	wordpools/wordpool_EN.txt	STREET	9	3	[0, 0, 0]	n/a	FR1	1	R1080E
373.931	1.6	442060	WORD	n/a	wordpools/wordpool_EN.txt	MAZE	10	3	[0, 0, 0]	n/a	FR1	1	R1080E
376.364	1.6	444492	WORD	n/a	wordpools/wordpool_EN.txt	CLOCK	11	3	[0, 0, 0]	n/a	FR1	1	R1080E
378.798	1.6	446926	WORD	n/a	wordpools/wordpool_EN.txt	LAWN	12	3	[0, 0, 0]	n/a	FR1	1	R1080E
380.415	0.001	448543	DISTRACT_START	n/a	n/a	n/a	-999	3	[0, 0, 0]	n/a	FR1	1	R1080E
380.416	0.015	448544	START	n/a	n/a	n/a	-999	3	[-999, -999, -999]	n/a	FR1	1	R1080E
380.431	4.868	448559	PROB	4.835	n/a	n/a	-999	3	[1, 2, 3]	6.0	FR1	1	R1080E
385.299	7.919	453427	PROB	7.887	n/a	n/a	-999	3	[7, 5, 4]	16.0	FR1	1	R1080E
393.218	14.728	461346	PROB	14.728	n/a	n/a	-999	3	[7, 9, 6]	22.0	FR1	1	R1080E
407.946	0.008	476073	STOP	n/a	n/a	n/a	-999	3	[-999, -999, -999]	n/a	FR1	1	R1080E
407.954	1.136	476081	DISTRACT_END	n/a	n/a	n/a	-999	3	[0, 0, 0]	n/a	FR1	1	R1080E
409.09	1.848	477217	REC_START	n/a	n/a	n/a	-999	3	[0, 0, 0]	n/a	FR1	1	R1080E
410.938	2.213	479065	REC_WORD	1.848	n/a	SHARK	-999	3	[0, 0, 0]	n/a	FR1	1	R1080E
413.151	10.613	481277	REC_WORD	4.061	n/a	WOOD	-999	3	[0, 0, 0]	n/a	FR1	1	R1080E
423.764	9.527	491890	REC_WORD	14.674	n/a	OAK	-999	3	[0, 0, 0]	n/a	FR1	1	R1080E
433.291	5.807	501416	REC_WORD	24.201	n/a	LAWN	-999	3	[0, 0, 0]	n/a	FR1	1	R1080E
439.098	4.744	507223	REC_END	n/a	n/a	n/a	-999	3	[0, 0, 0]	n/a	FR1	1	R1080E
443.842	10.0	511967	COUNTDOWN_START	n/a	n/a	n/a	-999	4	[0, 0, 0]	n/a	FR1	1	R1080E
443.843	10.427	511968	TRIAL	n/a	n/a	n/a	-999	4	[0, 0, 0]	n/a	FR1	1	R1080E
454.27	0.008	522394	COUNTDOWN_END	n/a	n/a	n/a	-999	4	[0, 0, 0]	n/a	FR1	1	R1080E
454.278	1.6	522402	ORIENT	n/a	n/a	n/a	-999	4	[0, 0, 0]	n/a	FR1	1	R1080E
456.661	1.6	524785	WORD	n/a	wordpools/wordpool_EN.txt	MAP	1	4	[0, 0, 0]	n/a	FR1	1	R1080E
459.228	1.6	527352	WORD	n/a	wordpools/wordpool_EN.txt	SEED	2	4	[0, 0, 0]	n/a	FR1	1	R1080E
461.746	1.6	529870	WORD	n/a	wordpools/wordpool_EN.txt	SHELL	3	4	[0, 0, 0]	n/a	FR1	1	R1080E
464.229	1.6	532353	WORD	n/a	wordpools/wordpool_EN.txt	GOLD	4	4	[0, 0, 0]	n/a	FR1	1	R1080E
466.713	1.6	534837	WORD	n/a	wordpools/wordpool_EN.txt	SNAKE	5	4	[0, 0, 0]	n/a	FR1	1	R1080E
469.164	1.6	537287	WORD	n/a	wordpools/wordpool_EN.txt	PLANT	6	4	[0, 0, 0]	n/a	FR1	1	R1080E
471.747	1.6	539870	WORD	n/a	wordpools/wordpool_EN.txt	WORLD	7	4	[0, 0, 0]	n/a	FR1	1	R1080E
474.182	1.6	542305	WORD	n/a	wordpools/wordpool_EN.txt	STEM	8	4	[0, 0, 0]	n/a	FR1	1	R1080E
476.582	1.6	544705	WORD	n/a	wordpools/wordpool_EN.txt	ROSE	9	4	[0, 0, 0]	n/a	FR1	1	R1080E
479.15	1.6	547273	WORD	n/a	wordpools/wordpool_EN.txt	MOTH	10	4	[0, 0, 0]	n/a	FR1	1	R1080E
481.766	1.6	549889	WORD	n/a	wordpools/wordpool_EN.txt	CLOUD	11	4	[0, 0, 0]	n/a	FR1	1	R1080E
484.15	1.6	552273	WORD	n/a	wordpools/wordpool_EN.txt	KEY	12	4	[0, 0, 0]	n/a	FR1	1	R1080E
485.766	0.001	553888	DISTRACT_START	n/a	n/a	n/a	-999	4	[0, 0, 0]	n/a	FR1	1	R1080E
485.767	0.016	553889	START	n/a	n/a	n/a	-999	4	[-999, -999, -999]	n/a	FR1	1	R1080E
485.783	7.868	553905	PROB	7.837	n/a	n/a	-999	4	[8, 6, 4]	18.0	FR1	1	R1080E
493.651	4.101	561773	PROB	4.073	n/a	n/a	-999	4	[3, 1, 3]	7.0	FR1	1	R1080E
497.752	7.119	565874	PROB	7.087	n/a	n/a	-999	4	[2, 3, 9]	14.0	FR1	1	R1080E
504.871	5.249	572992	PROB	5.249	n/a	n/a	-999	4	[9, 1, 6]	16.0	FR1	1	R1080E
510.12	0.018	578241	STOP	n/a	n/a	n/a	-999	4	[-999, -999, -999]	n/a	FR1	1	R1080E
510.138	1.217	578259	DISTRACT_END	n/a	n/a	n/a	-999	4	[0, 0, 0]	n/a	FR1	1	R1080E
511.355	5.12	579476	REC_START	n/a	n/a	n/a	-999	4	[0, 0, 0]	n/a	FR1	1	R1080E
516.475	2.451	584596	REC_WORD	5.12	n/a	CLOUD	-999	4	[0, 0, 0]	n/a	FR1	1	R1080E
518.926	1.318	587047	REC_WORD	7.571	n/a	SAND	-999	4	[0, 0, 0]	n/a	FR1	1	R1080E
520.244	1.473	588365	REC_WORD	8.889	n/a	SHELL	-999	4	[0, 0, 0]	n/a	FR1	1	R1080E
521.717	1.344	589838	REC_WORD	10.362	n/a	MAP	-999	4	[0, 0, 0]	n/a	FR1	1	R1080E
523.061	1.645	591181	REC_WORD	11.706	n/a	WORLD	-999	4	[0, 0, 0]	n/a	FR1	1	R1080E
524.706	1.625	592826	REC_WORD	13.351	n/a	STEM	-999	4	[0, 0, 0]	n/a	FR1	1	R1080E
526.331	3.843	594451	REC_WORD	14.976	n/a	ROSE	-999	4	[0, 0, 0]	n/a	FR1	1	R1080E
530.174	7.59	598294	REC_WORD	18.819	n/a	SEED	-999	4	[0, 0, 0]	n/a	FR1	1	R1080E
537.764	3.599	605884	REC_WORD	26.409	n/a	CLOCK	-999	4	[0, 0, 0]	n/a	FR1	1	R1080E
541.363	6.649	609482	REC_END	n/a	n/a	n/a	-999	4	[0, 0, 0]	n/a	FR1	1	R1080E
548.012	0.0	616131	TRIAL	n/a	n/a	n/a	-999	5	[0, 0, 0]	n/a	FR1	1	R1080E
548.012	10.0	616131	COUNTDOWN_START	n/a	n/a	n/a	-999	5	[0, 0, 0]	n/a	FR1	1	R1080E
558.44	0.006	626559	COUNTDOWN_END	n/a	n/a	n/a	-999	5	[0, 0, 0]	n/a	FR1	1	R1080E
558.446	1.6	626565	ORIENT	n/a	n/a	n/a	-999	5	[0, 0, 0]	n/a	FR1	1	R1080E
561.014	1.6	629132	WORD	n/a	wordpools/wordpool_EN.txt	SHRIMP	1	5	[0, 0, 0]	n/a	FR1	1	R1080E
563.58	1.6	631698	WORD	n/a	wordpools/wordpool_EN.txt	SALT	2	5	[0, 0, 0]	n/a	FR1	1	R1080E
566.115	1.6	634233	WORD	n/a	wordpools/wordpool_EN.txt	STRING	3	5	[0, 0, 0]	n/a	FR1	1	R1080E
568.548	1.6	636666	WORD	n/a	wordpools/wordpool_EN.txt	DIME	4	5	[0, 0, 0]	n/a	FR1	1	R1080E
570.982	1.6	639100	WORD	n/a	wordpools/wordpool_EN.txt	SPOON	5	5	[0, 0, 0]	n/a	FR1	1	R1080E
573.515	1.6	641633	WORD	n/a	wordpools/wordpool_EN.txt	SPONGE	6	5	[0, 0, 0]	n/a	FR1	1	R1080E
576.083	1.6	644201	WORD	n/a	wordpools/wordpool_EN.txt	ZOO	7	5	[0, 0, 0]	n/a	FR1	1	R1080E
578.566	1.6	646683	WORD	n/a	wordpools/wordpool_EN.txt	CLOWN	8	5	[0, 0, 0]	n/a	FR1	1	R1080E
581.0	1.6	649117	WORD	n/a	wordpools/wordpool_EN.txt	PASTE	9	5	[0, 0, 0]	n/a	FR1	1	R1080E
583.517	1.6	651634	WORD	n/a	wordpools/wordpool_EN.txt	TOOL	10	5	[0, 0, 0]	n/a	FR1	1	R1080E
585.902	1.6	654019	WORD	n/a	wordpools/wordpool_EN.txt	TEETH	11	5	[0, 0, 0]	n/a	FR1	1	R1080E
588.468	1.6	656585	WORD	n/a	wordpools/wordpool_EN.txt	ELF	12	5	[0, 0, 0]	n/a	FR1	1	R1080E
590.086	0.0	658203	DISTRACT_START	n/a	n/a	n/a	-999	5	[0, 0, 0]	n/a	FR1	1	R1080E
590.086	0.016	658203	START	n/a	n/a	n/a	-999	5	[-999, -999, -999]	n/a	FR1	1	R1080E
590.102	4.65	658219	PROB	4.626	n/a	n/a	-999	5	[3, 1, 7]	11.0	FR1	1	R1080E
594.752	3.951	662869	PROB	3.919	n/a	n/a	-999	5	[4, 6, 8]	18.0	FR1	1	R1080E
598.703	4.634	666819	PROB	4.608	n/a	n/a	-999	5	[6, 2, 3]	11.0	FR1	1	R1080E
603.337	4.668	671453	PROB	4.647	n/a	n/a	-999	5	[7, 3, 2]	12.0	FR1	1	R1080E
608.005	4.98	676121	PROB	4.98	n/a	n/a	-999	5	[5, 6, 2]	13.0	FR1	1	R1080E
612.985	0.005	681101	STOP	n/a	n/a	n/a	-999	5	[-999, -999, -999]	n/a	FR1	1	R1080E
612.99	1.034	681106	DISTRACT_END	n/a	n/a	n/a	-999	5	[0, 0, 0]	n/a	FR1	1	R1080E
614.024	2.881	682140	REC_START	n/a	n/a	n/a	-999	5	[0, 0, 0]	n/a	FR1	1	R1080E
616.905	1.445	685020	REC_WORD	2.881	n/a	ELF	-999	5	[0, 0, 0]	n/a	FR1	1	R1080E
618.35	1.627	686465	REC_WORD	4.326	n/a	TEETH	-999	5	[0, 0, 0]	n/a	FR1	1	R1080E
619.977	7.132	688092	REC_WORD	5.953	n/a	CLOWN	-999	5	[0, 0, 0]	n/a	FR1	1	R1080E
627.109	16.923	695224	REC_WORD	13.085	n/a	TOOL	-999	5	[0, 0, 0]	n/a	FR1	1	R1080E
644.032	4.997	712146	REC_END	n/a	n/a	n/a	-999	5	[0, 0, 0]	n/a	FR1	1	R1080E
649.029	10.0	717143	COUNTDOWN_START	n/a	n/a	n/a	-999	6	[0, 0, 0]	n/a	FR1	1	R1080E
649.029	10.428	717143	TRIAL	n/a	n/a	n/a	-999	6	[0, 0, 0]	n/a	FR1	1	R1080E
659.457	0.006	727570	COUNTDOWN_END	n/a	n/a	n/a	-999	6	[0, 0, 0]	n/a	FR1	1	R1080E
659.463	1.6	727576	ORIENT	n/a	n/a	n/a	-999	6	[0, 0, 0]	n/a	FR1	1	R1080E
662.015	1.6	730128	WORD	n/a	wordpools/wordpool_EN.txt	BOMB	1	6	[0, 0, 0]	n/a	FR1	1	R1080E
664.481	1.6	732594	WORD	n/a	wordpools/wordpool_EN.txt	FORT	2	6	[0, 0, 0]	n/a	FR1	1	R1080E
666.999	1.6	735112	WORD	n/a	wordpools/wordpool_EN.txt	STEAM	3	6	[0, 0, 0]	n/a	FR1	1	R1080E
669.565	1.6	737678	WORD	n/a	wordpools/wordpool_EN.txt	DRUM	4	6	[0, 0, 0]	n/a	FR1	1	R1080E
672.167	1.6	740279	WORD	n/a	wordpools/wordpool_EN.txt	BARN	5	6	[0, 0, 0]	n/a	FR1	1	R1080E
674.649	1.6	742761	WORD	n/a	wordpools/wordpool_EN.txt	TRASH	6	6	[0, 0, 0]	n/a	FR1	1	R1080E
677.201	1.6	745313	WORD	n/a	wordpools/wordpool_EN.txt	FLUTE	7	6	[0, 0, 0]	n/a	FR1	1	R1080E
679.667	1.6	747779	WORD	n/a	wordpools/wordpool_EN.txt	WHEEL	8	6	[0, 0, 0]	n/a	FR1	1	R1080E
682.152	1.6	750264	WORD	n/a	wordpools/wordpool_EN.txt	RAIN	9	6	[0, 0, 0]	n/a	FR1	1	R1080E
684.618	1.6	752730	WORD	n/a	wordpools/wordpool_EN.txt	BRIDGE	10	6	[0, 0, 0]	n/a	FR1	1	R1080E
687.086	1.6	755198	WORD	n/a	wordpools/wordpool_EN.txt	LAND	11	6	[0, 0, 0]	n/a	FR1	1	R1080E
689.702	1.6	757813	WORD	n/a	wordpools/wordpool_EN.txt	FOG	12	6	[0, 0, 0]	n/a	FR1	1	R1080E
691.319	0.0	759430	DISTRACT_START	n/a	n/a	n/a	-999	6	[0, 0, 0]	n/a	FR1	1	R1080E
691.319	0.016	759430	START	n/a	n/a	n/a	-999	6	[-999, -999, -999]	n/a	FR1	1	R1080E
691.335	4.836	759446	PROB	4.804	n/a	n/a	-999	6	[9, 8, 2]	19.0	FR1	1	R1080E
696.171	4.784	764282	PROB	4.76	n/a	n/a	-999	6	[3, 3, 7]	13.0	FR1	1	R1080E
700.955	4.034	769066	PROB	4.007	n/a	n/a	-999	6	[8, 8, 2]	18.0	FR1	1	R1080E
704.989	4.533	773100	PROB	4.509	n/a	n/a	-999	6	[8, 8, 4]	20.0	FR1	1	R1080E
709.522	14.863	777632	PROB	14.863	n/a	n/a	-999	6	[8, 3, 6]	19.0	FR1	1	R1080E
724.385	0.006	792495	STOP	n/a	n/a	n/a	-999	6	[-999, -999, -999]	n/a	FR1	1	R1080E
724.391	1.152	792501	DISTRACT_END	n/a	n/a	n/a	-999	6	[0, 0, 0]	n/a	FR1	1	R1080E
725.543	3.346	793652	REC_START	n/a	n/a	n/a	-999	6	[0, 0, 0]	n/a	FR1	1	R1080E
728.889	1.535	796998	REC_WORD	3.346	n/a	BRIDGE	-999	6	[0, 0, 0]	n/a	FR1	1	R1080E
730.424	1.392	798533	REC_WORD	4.881	n/a	LAND	-999	6	[0, 0, 0]	n/a	FR1	1	R1080E
731.816	21.506	799925	REC_WORD	6.273	n/a	STEAM	-999	6	[0, 0, 0]	n/a	FR1	1	R1080E
753.322	2.231	821430	REC_WORD	27.779	n/a	LAKE	-999	6	[0, 0, 0]	n/a	FR1	1	R1080E
755.553	6.995	823661	REC_END	n/a	n/a	n/a	-999	6	[0, 0, 0]	n/a	FR1	1	R1080E
762.548	0.0	830655	TRIAL	n/a	n/a	n/a	-999	7	[0, 0, 0]	n/a	FR1	1	R1080E
762.548	10.0	830655	COUNTDOWN_START	n/a	n/a	n/a	-999	7	[0, 0, 0]	n/a	FR1	1	R1080E
772.976	0.008	841083	COUNTDOWN_END	n/a	n/a	n/a	-999	7	[0, 0, 0]	n/a	FR1	1	R1080E
772.984	1.6	841091	ORIENT	n/a	n/a	n/a	-999	7	[0, 0, 0]	n/a	FR1	1	R1080E
775.384	1.6	843491	WORD	n/a	wordpools/wordpool_EN.txt	NAIL	1	7	[0, 0, 0]	n/a	FR1	1	R1080E
778.002	1.6	846109	WORD	n/a	wordpools/wordpool_EN.txt	PIT	2	7	[0, 0, 0]	n/a	FR1	1	R1080E
780.585	1.6	848691	WORD	n/a	wordpools/wordpool_EN.txt	FOOT	3	7	[0, 0, 0]	n/a	FR1	1	R1080E
783.069	1.6	851175	WORD	n/a	wordpools/wordpool_EN.txt	FACE	4	7	[0, 0, 0]	n/a	FR1	1	R1080E
785.535	1.6	853641	WORD	n/a	wordpools/wordpool_EN.txt	HILL	5	7	[0, 0, 0]	n/a	FR1	1	R1080E
788.087	1.6	856193	WORD	n/a	wordpools/wordpool_EN.txt	STICK	6	7	[0, 0, 0]	n/a	FR1	1	R1080E
790.653	1.6	858759	WORD	n/a	wordpools/wordpool_EN.txt	SOCK	7	7	[0, 0, 0]	n/a	FR1	1	R1080E
793.121	1.6	861227	WORD	n/a	wordpools/wordpool_EN.txt	DRESS	8	7	[0, 0, 0]	n/a	FR1	1	R1080E
795.62	1.6	863726	WORD	n/a	wordpools/wordpool_EN.txt	CONE	9	7	[0, 0, 0]	n/a	FR1	1	R1080E
798.139	1.6	866245	WORD	n/a	wordpools/wordpool_EN.txt	FLAME	10	7	[0, 0, 0]	n/a	FR1	1	R1080E
800.621	1.6	868726	WORD	n/a	wordpools/wordpool_EN.txt	BAG	11	7	[0, 0, 0]	n/a	FR1	1	R1080E
803.189	1.6	871294	WORD	n/a	wordpools/wordpool_EN.txt	FUDGE	12	7	[0, 0, 0]	n/a	FR1	1	R1080E
804.805	0.001	872910	DISTRACT_START	n/a	n/a	n/a	-999	7	[0, 0, 0]	n/a	FR1	1	R1080E
804.806	0.016	872911	START	n/a	n/a	n/a	-999	7	[-999, -999, -999]	n/a	FR1	1	R1080E
804.822	4.917	872927	PROB	4.883	n/a	n/a	-999	7	[3, 8, 2]	13.0	FR1	1	R1080E
809.739	4.402	877844	PROB	4.383	n/a	n/a	-999	7	[1, 4, 3]	8.0	FR1	1	R1080E
814.141	25.416	882246	PROB	25.416	n/a	n/a	-999	7	[9, 6, 6]	17.0	FR1	1	R1080E
839.557	0.004	907660	STOP	n/a	n/a	n/a	-999	7	[-999, -999, -999]	n/a	FR1	1	R1080E
839.561	1.118	907664	DISTRACT_END	n/a	n/a	n/a	-999	7	[0, 0, 0]	n/a	FR1	1	R1080E
840.679	5.764	908782	REC_START	n/a	n/a	n/a	-999	7	[0, 0, 0]	n/a	FR1	1	R1080E
846.443	1.486	914546	REC_WORD	5.764	n/a	FACE	-999	7	[0, 0, 0]	n/a	FR1	1	R1080E
847.929	5.655	916032	REC_WORD	7.25	n/a	NAIL	-999	7	[0, 0, 0]	n/a	FR1	1	R1080E
853.584	5.938	921686	REC_WORD	12.905	n/a	CONE	-999	7	[0, 0, 0]	n/a	FR1	1	R1080E
859.522	11.167	927624	REC_WORD	18.843	n/a	FOOT	-999	7	[0, 0, 0]	n/a	FR1	1	R1080E
870.689	3.179	938791	REC_END	n/a	n/a	n/a	-999	7	[0, 0, 0]	n/a	FR1	1	R1080E
873.868	10.0	941969	COUNTDOWN_START	n/a	n/a	n/a	-999	8	[0, 0, 0]	n/a	FR1	1	R1080E
873.869	10.427	941970	TRIAL	n/a	n/a	n/a	-999	8	[0, 0, 0]	n/a	FR1	1	R1080E
884.296	0.007	952397	COUNTDOWN_END	n/a	n/a	n/a	-999	8	[0, 0, 0]	n/a	FR1	1	R1080E
884.303	1.6	952404	ORIENT	n/a	n/a	n/a	-999	8	[0, 0, 0]	n/a	FR1	1	R1080E
886.921	1.6	955022	WORD	n/a	wordpools/wordpool_EN.txt	BRICK	1	8	[0, 0, 0]	n/a	FR1	1	R1080E
889.454	1.6	957555	WORD	n/a	wordpools/wordpool_EN.txt	MAIL	2	8	[0, 0, 0]	n/a	FR1	1	R1080E
891.972	1.6	960072	WORD	n/a	wordpools/wordpool_EN.txt	FILM	3	8	[0, 0, 0]	n/a	FR1	1	R1080E
894.488	1.6	962588	WORD	n/a	wordpools/wordpool_EN.txt	JUDGE	4	8	[0, 0, 0]	n/a	FR1	1	R1080E
897.106	1.6	965206	WORD	n/a	wordpools/wordpool_EN.txt	DOOR	5	8	[0, 0, 0]	n/a	FR1	1	R1080E
899.739	1.6	967839	WORD	n/a	wordpools/wordpool_EN.txt	CAR	6	8	[0, 0, 0]	n/a	FR1	1	R1080E
902.124	1.6	970224	WORD	n/a	wordpools/wordpool_EN.txt	BOOK	7	8	[0, 0, 0]	n/a	FR1	1	R1080E
904.64	1.6	972740	WORD	n/a	wordpools/wordpool_EN.txt	KITE	8	8	[0, 0, 0]	n/a	FR1	1	R1080E
907.208	1.6	975308	WORD	n/a	wordpools/wordpool_EN.txt	INK	9	8	[0, 0, 0]	n/a	FR1	1	R1080E
909.707	1.6	977806	WORD	n/a	wordpools/wordpool_EN.txt	SKI	10	8	[0, 0, 0]	n/a	FR1	1	R1080E
912.109	1.6	980208	WORD	n/a	wordpools/wordpool_EN.txt	BANK	11	8	[0, 0, 0]	n/a	FR1	1	R1080E
914.725	1.6	982824	WORD	n/a	wordpools/wordpool_EN.txt	JAIL	12	8	[0, 0, 0]	n/a	FR1	1	R1080E
916.342	0.0	984441	DISTRACT_START	n/a	n/a	n/a	-999	8	[0, 0, 0]	n/a	FR1	1	R1080E
916.342	0.016	984441	START	n/a	n/a	n/a	-999	8	[-999, -999, -999]	n/a	FR1	1	R1080E
916.358	9.235	984457	PROB	9.211	n/a	n/a	-999	8	[2, 6, 7]	15.0	FR1	1	R1080E
925.593	8.453	993692	PROB	8.417	n/a	n/a	-999	8	[6, 8, 1]	15.0	FR1	1	R1080E
934.046	8.847	1002144	PROB	8.847	n/a	n/a	-999	8	[2, 7, 8]	17.0	FR1	1	R1080E
942.893	0.004	1010991	STOP	n/a	n/a	n/a	-999	8	[-999, -999, -999]	n/a	FR1	1	R1080E
942.897	1.185	1010995	DISTRACT_END	n/a	n/a	n/a	-999	8	[0, 0, 0]	n/a	FR1	1	R1080E
944.082	5.338	1012180	REC_START	n/a	n/a	n/a	-999	8	[0, 0, 0]	n/a	FR1	1	R1080E
949.42	1.89	1017517	REC_WORD	5.338	n/a	JUDGE	-999	8	[0, 0, 0]	n/a	FR1	1	R1080E
951.31	5.551	1019407	REC_WORD	7.228	n/a	JAIL	-999	8	[0, 0, 0]	n/a	FR1	1	R1080E
956.861	11.565	1024958	REC_WORD	12.779	n/a	MAIL	-999	8	[0, 0, 0]	n/a	FR1	1	R1080E
968.426	5.666	1036522	REC_WORD	24.344	n/a	SKY	-999	8	[0, 0, 0]	n/a	FR1	1	R1080E
974.092	3.194	1042188	REC_END	n/a	n/a	n/a	-999	8	[0, 0, 0]	n/a	FR1	1	R1080E
977.286	0.0	1045382	TRIAL	n/a	n/a	n/a	-999	9	[0, 0, 0]	n/a	FR1	1	R1080E
977.286	10.0	1045382	COUNTDOWN_START	n/a	n/a	n/a	-999	9	[0, 0, 0]	n/a	FR1	1	R1080E
987.714	0.007	1055809	COUNTDOWN_END	n/a	n/a	n/a	-999	9	[0, 0, 0]	n/a	FR1	1	R1080E
987.721	1.6	1055816	ORIENT	n/a	n/a	n/a	-999	9	[0, 0, 0]	n/a	FR1	1	R1080E
990.106	1.6	1058201	WORD	n/a	wordpools/wordpool_EN.txt	STOVE	1	9	[0, 0, 0]	n/a	FR1	1	R1080E
992.705	1.6	1060800	WORD	n/a	wordpools/wordpool_EN.txt	TRUCK	2	9	[0, 0, 0]	n/a	FR1	1	R1080E
995.156	1.6	1063251	WORD	n/a	wordpools/wordpool_EN.txt	PARK	3	9	[0, 0, 0]	n/a	FR1	1	R1080E
997.622	1.6	1065717	WORD	n/a	wordpools/wordpool_EN.txt	SIGN	4	9	[0, 0, 0]	n/a	FR1	1	R1080E
1000.024	1.6	1068119	WORD	n/a	wordpools/wordpool_EN.txt	BATH	5	9	[0, 0, 0]	n/a	FR1	1	R1080E
1002.423	1.6	1070517	WORD	n/a	wordpools/wordpool_EN.txt	STAIR	6	9	[0, 0, 0]	n/a	FR1	1	R1080E
1004.958	1.6	1073052	WORD	n/a	wordpools/wordpool_EN.txt	STRAW	7	9	[0, 0, 0]	n/a	FR1	1	R1080E
1007.541	1.6	1075635	WORD	n/a	wordpools/wordpool_EN.txt	MILK	8	9	[0, 0, 0]	n/a	FR1	1	R1080E
1009.976	1.6	1078070	WORD	n/a	wordpools/wordpool_EN.txt	VEST	9	9	[0, 0, 0]	n/a	FR1	1	R1080E
1012.592	1.6	1080686	WORD	n/a	wordpools/wordpool_EN.txt	SWAMP	10	9	[0, 0, 0]	n/a	FR1	1	R1080E
1015.177	1.6	1083271	WORD	n/a	wordpools/wordpool_EN.txt	FARM	11	9	[0, 0, 0]	n/a	FR1	1	R1080E
1017.576	1.6	1085670	WORD	n/a	wordpools/wordpool_EN.txt	WEED	12	9	[0, 0, 0]	n/a	FR1	1	R1080E
1019.177	0.001	1087270	DISTRACT_START	n/a	n/a	n/a	-999	9	[0, 0, 0]	n/a	FR1	1	R1080E
1019.178	0.016	1087271	START	n/a	n/a	n/a	-999	9	[-999, -999, -999]	n/a	FR1	1	R1080E
1019.194	12.351	1087287	PROB	12.316	n/a	n/a	-999	9	[5, 8, 9]	22.0	FR1	1	R1080E
1031.545	8.215	1099638	PROB	8.215	n/a	n/a	-999	9	[4, 9, 2]	15.0	FR1	1	R1080E
1039.76	0.02	1107852	STOP	n/a	n/a	n/a	-999	9	[-999, -999, -999]	n/a	FR1	1	R1080E
1039.78	1.068	1107872	DISTRACT_END	n/a	n/a	n/a	-999	9	[0, 0, 0]	n/a	FR1	1	R1080E
1040.848	3.695	1108940	REC_START	n/a	n/a	n/a	-999	9	[0, 0, 0]	n/a	FR1	1	R1080E
1044.543	26.316	1112635	REC_WORD	3.695	n/a	SWAMP	-999	9	[0, 0, 0]	n/a	FR1	1	R1080E
1070.859	20.797	1138950	REC_END	n/a	n/a	n/a	-999	9	[0, 0, 0]	n/a	FR1	1	R1080E
1091.656	0.0	1159746	TRIAL	n/a	n/a	n/a	-999	10	[0, 0, 0]	n/a	FR1	1	R1080E
1091.656	10.0	1159746	COUNTDOWN_START	n/a	n/a	n/a	-999	10	[0, 0, 0]	n/a	FR1	1	R1080E
1102.084	0.024	1170173	COUNTDOWN_END	n/a	n/a	n/a	-999	10	[0, 0, 0]	n/a	FR1	1	R1080E
1102.108	1.6	1170197	ORIENT	n/a	n/a	n/a	-999	10	[0, 0, 0]	n/a	FR1	1	R1080E
1104.508	1.6	1172597	WORD	n/a	wordpools/wordpool_EN.txt	TENT	1	10	[0, 0, 0]	n/a	FR1	1	R1080E
1107.126	1.6	1175215	WORD	n/a	wordpools/wordpool_EN.txt	GUARD	2	10	[0, 0, 0]	n/a	FR1	1	R1080E
1109.625	1.6	1177714	WORD	n/a	wordpools/wordpool_EN.txt	JEEP	3	10	[0, 0, 0]	n/a	FR1	1	R1080E
1112.11	1.6	1180198	WORD	n/a	wordpools/wordpool_EN.txt	ARK	4	10	[0, 0, 0]	n/a	FR1	1	R1080E
1114.71	1.6	1182798	WORD	n/a	wordpools/wordpool_EN.txt	LIP	5	10	[0, 0, 0]	n/a	FR1	1	R1080E
1117.111	1.6	1185199	WORD	n/a	wordpools/wordpool_EN.txt	PEN	6	10	[0, 0, 0]	n/a	FR1	1	R1080E
1119.51	1.6	1187598	WORD	n/a	wordpools/wordpool_EN.txt	CHEEK	7	10	[0, 0, 0]	n/a	FR1	1	R1080E
1121.995	1.6	1190083	WORD	n/a	wordpools/wordpool_EN.txt	BADGE	8	10	[0, 0, 0]	n/a	FR1	1	R1080E
1124.528	1.6	1192616	WORD	n/a	wordpools/wordpool_EN.txt	HAT	9	10	[0, 0, 0]	n/a	FR1	1	R1080E
1127.129	1.6	1195217	WORD	n/a	wordpools/wordpool_EN.txt	MUD	10	10	[0, 0, 0]	n/a	FR1	1	R1080E
1129.612	1.6	1197699	WORD	n/a	wordpools/wordpool_EN.txt	GEESE	11	10	[0, 0, 0]	n/a	FR1	1	R1080E
1132.047	1.6	1200134	WORD	n/a	wordpools/wordpool_EN.txt	HAND	12	10	[0, 0, 0]	n/a	FR1	1	R1080E
1133.663	0.001	1201750	DISTRACT_START	n/a	n/a	n/a	-999	10	[0, 0, 0]	n/a	FR1	1	R1080E
1133.664	0.016	1201751	START	n/a	n/a	n/a	-999	10	[-999, -999, -999]	n/a	FR1	1	R1080E
1133.68	5.15	1201767	PROB	5.117	n/a	n/a	-999	10	[5, 4, 9]	18.0	FR1	1	R1080E
1138.83	6.702	1206917	PROB	6.671	n/a	n/a	-999	10	[9, 3, 8]	20.0	FR1	1	R1080E
1145.532	6.569	1213619	PROB	6.54	n/a	n/a	-999	10	[6, 2, 3]	11.0	FR1	1	R1080E
1152.101	13.068	1220187	PROB	13.068	n/a	n/a	-999	10	[3, 3, 9]	15.0	FR1	1	R1080E
1165.169	0.017	1233255	STOP	n/a	n/a	n/a	-999	10	[-999, -999, -999]	n/a	FR1	1	R1080E
1165.186	1.05	1233272	DISTRACT_END	n/a	n/a	n/a	-999	10	[0, 0, 0]	n/a	FR1	1	R1080E
1166.236	3.812	1234322	REC_START	n/a	n/a	n/a	-999	10	[0, 0, 0]	n/a	FR1	1	R1080E
1170.048	1.529	1238133	REC_WORD	3.812	n/a	LIP	-999	10	[0, 0, 0]	n/a	FR1	1	R1080E
1171.577	7.062	1239662	REC_WORD	5.341	n/a	CHEEK	-999	10	[0, 0, 0]	n/a	FR1	1	R1080E
1178.639	4.624	1246724	REC_WORD	12.403	n/a	FARM	-999	10	[0, 0, 0]	n/a	FR1	1	R1080E
1183.263	3.503	1251348	REC_WORD	17.027	n/a	GEESE	-999	10	[0, 0, 0]	n/a	FR1	1	R1080E
1186.766	8.669	1254850	REC_WORD	20.53	n/a	HAND	-999	10	[0, 0, 0]	n/a	FR1	1	R1080E
1195.435	0.811	1263519	REC_WORD	29.199	n/a	TOE	-999	10	[0, 0, 0]	n/a	FR1	1	R1080E
1196.246	5.747	1264330	REC_END	n/a	n/a	n/a	-999	10	[0, 0, 0]	n/a	FR1	1	R1080E
1201.993	0.0	1270077	TRIAL	n/a	n/a	n/a	-999	11	[0, 0, 0]	n/a	FR1	1	R1080E
1201.993	10.0	1270077	COUNTDOWN_START	n/a	n/a	n/a	-999	11	[0, 0, 0]	n/a	FR1	1	R1080E
1212.421	0.006	1280504	COUNTDOWN_END	n/a	n/a	n/a	-999	11	[0, 0, 0]	n/a	FR1	1	R1080E
1212.427	1.6	1280510	ORIENT	n/a	n/a	n/a	-999	11	[0, 0, 0]	n/a	FR1	1	R1080E
1214.978	1.6	1283061	WORD	n/a	wordpools/wordpool_EN.txt	YARD	1	11	[0, 0, 0]	n/a	FR1	1	R1080E
1217.578	1.6	1285661	WORD	n/a	wordpools/wordpool_EN.txt	HOLE	2	11	[0, 0, 0]	n/a	FR1	1	R1080E
1220.196	1.6	1288279	WORD	n/a	wordpools/wordpool_EN.txt	BUSH	3	11	[0, 0, 0]	n/a	FR1	1	R1080E
1222.612	1.6	1290694	WORD	n/a	wordpools/wordpool_EN.txt	OWL	4	11	[0, 0, 0]	n/a	FR1	1	R1080E
1225.03	1.6	1293112	WORD	n/a	wordpools/wordpool_EN.txt	BRUSH	5	11	[0, 0, 0]	n/a	FR1	1	R1080E
1227.596	1.6	1295678	WORD	n/a	wordpools/wordpool_EN.txt	PIPE	6	11	[0, 0, 0]	n/a	FR1	1	R1080E
1230.097	1.6	1298179	WORD	n/a	wordpools/wordpool_EN.txt	CLIFF	7	11	[0, 0, 0]	n/a	FR1	1	R1080E
1232.497	1.6	1300579	WORD	n/a	wordpools/wordpool_EN.txt	MULE	8	11	[0, 0, 0]	n/a	FR1	1	R1080E
1235.065	1.6	1303147	WORD	n/a	wordpools/wordpool_EN.txt	SPEAR	9	11	[0, 0, 0]	n/a	FR1	1	R1080E
1237.615	1.6	1305697	WORD	n/a	wordpools/wordpool_EN.txt	BAND	10	11	[0, 0, 0]	n/a	FR1	1	R1080E
1240.149	1.6	1308230	WORD	n/a	wordpools/wordpool_EN.txt	FROG	11	11	[0, 0, 0]	n/a	FR1	1	R1080E
1242.549	1.6	1310630	WORD	n/a	wordpools/wordpool_EN.txt	ROOF	12	11	[0, 0, 0]	n/a	FR1	1	R1080E
1244.167	0.0	1312248	DISTRACT_START	n/a	n/a	n/a	-999	11	[0, 0, 0]	n/a	FR1	1	R1080E
1244.167	0.016	1312248	START	n/a	n/a	n/a	-999	11	[-999, -999, -999]	n/a	FR1	1	R1080E
1244.183	10.401	1312264	PROB	10.372	n/a	n/a	-999	11	[9, 9, 6]	23.0	FR1	1	R1080E
1254.584	9.641	1322665	PROB	9.641	n/a	n/a	-999	11	[4, 7, 7]	18.0	FR1	1	R1080E
1264.225	0.011	1332305	STOP	n/a	n/a	n/a	-999	11	[-999, -999, -999]	n/a	FR1	1	R1080E
1264.236	1.1	1332316	DISTRACT_END	n/a	n/a	n/a	-999	11	[0, 0, 0]	n/a	FR1	1	R1080E
1265.336	3.285	1333416	REC_START	n/a	n/a	n/a	-999	11	[0, 0, 0]	n/a	FR1	1	R1080E
1268.621	2.172	1336701	REC_WORD	3.285	n/a	SPEAR	-999	11	[0, 0, 0]	n/a	FR1	1	R1080E
1270.793	12.694	1338873	REC_WORD	5.457	n/a	FROG	-999	11	[0, 0, 0]	n/a	FR1	1	R1080E
1283.487	11.859	1351566	REC_WORD	18.151	n/a	MULE	-999	11	[0, 0, 0]	n/a	FR1	1	R1080E
1295.346	4.979	1363424	REC_END	n/a	n/a	n/a	-999	11	[0, 0, 0]	n/a	FR1	1	R1080E
1300.325	10.0	1368403	COUNTDOWN_START	n/a	n/a	n/a	-999	12	[0, 0, 0]	n/a	FR1	1	R1080E
1300.326	10.427	1368404	TRIAL	n/a	n/a	n/a	-999	12	[0, 0, 0]	n/a	FR1	1	R1080E
1310.753	0.008	1378831	COUNTDOWN_END	n/a	n/a	n/a	-999	12	[0, 0, 0]	n/a	FR1	1	R1080E
1310.761	1.6	1378839	ORIENT	n/a	n/a	n/a	-999	12	[0, 0, 0]	n/a	FR1	1	R1080E
1313.261	1.6	1381339	WORD	n/a	wordpools/wordpool_EN.txt	SPARK	1	12	[0, 0, 0]	n/a	FR1	1	R1080E
1315.795	1.6	1383872	WORD	n/a	wordpools/wordpool_EN.txt	SEAL	2	12	[0, 0, 0]	n/a	FR1	1	R1080E
1318.295	1.6	1386372	WORD	n/a	wordpools/wordpool_EN.txt	THREAD	3	12	[0, 0, 0]	n/a	FR1	1	R1080E
1320.845	1.6	1388922	WORD	n/a	wordpools/wordpool_EN.txt	DITCH	4	12	[0, 0, 0]	n/a	FR1	1	R1080E
1323.463	1.6	1391540	WORD	n/a	wordpools/wordpool_EN.txt	FLAG	5	12	[0, 0, 0]	n/a	FR1	1	R1080E
1326.031	1.6	1394108	WORD	n/a	wordpools/wordpool_EN.txt	SAIL	6	12	[0, 0, 0]	n/a	FR1	1	R1080E
1328.464	1.6	1396541	WORD	n/a	wordpools/wordpool_EN.txt	TANK	7	12	[0, 0, 0]	n/a	FR1	1	R1080E
1330.965	1.6	1399042	WORD	n/a	wordpools/wordpool_EN.txt	TOY	8	12	[0, 0, 0]	n/a	FR1	1	R1080E
1333.465	1.6	1401541	WORD	n/a	wordpools/wordpool_EN.txt	GRASS	9	12	[0, 0, 0]	n/a	FR1	1	R1080E
1335.966	1.6	1404042	WORD	n/a	wordpools/wordpool_EN.txt	SEA	10	12	[0, 0, 0]	n/a	FR1	1	R1080E
1338.549	1.6	1406625	WORD	n/a	wordpools/wordpool_EN.txt	SHIP	11	12	[0, 0, 0]	n/a	FR1	1	R1080E
1341.134	1.6	1409210	WORD	n/a	wordpools/wordpool_EN.txt	PIN	12	12	[0, 0, 0]	n/a	FR1	1	R1080E
1342.75	0.0	1410826	DISTRACT_START	n/a	n/a	n/a	-999	12	[0, 0, 0]	n/a	FR1	1	R1080E
1342.75	0.016	1410826	START	n/a	n/a	n/a	-999	12	[-999, -999, -999]	n/a	FR1	1	R1080E
1342.766	6.468	1410842	PROB	6.441	n/a	n/a	-999	12	[2, 5, 3]	10.0	FR1	1	R1080E
1349.234	6.251	1417310	PROB	6.229	n/a	n/a	-999	12	[6, 5, 1]	12.0	FR1	1	R1080E
1355.485	4.284	1423560	PROB	4.25	n/a	n/a	-999	12	[4, 1, 1]	6.0	FR1	1	R1080E
1359.769	15.369	1427844	PROB	15.369	n/a	n/a	-999	12	[9, 6, 6]	21.0	FR1	1	R1080E
1375.138	0.018	1443212	STOP	n/a	n/a	n/a	-999	12	[-999, -999, -999]	n/a	FR1	1	R1080E
1375.156	1.15	1443230	DISTRACT_END	n/a	n/a	n/a	-999	12	[0, 0, 0]	n/a	FR1	1	R1080E
1376.306	3.057	1444380	REC_START	n/a	n/a	n/a	-999	12	[0, 0, 0]	n/a	FR1	1	R1080E
1379.363	1.458	1447437	REC_WORD	3.057	n/a	SHIP	-999	12	[0, 0, 0]	n/a	FR1	1	R1080E
1380.821	9.165	1448895	REC_WORD	4.515	n/a	SEA	-999	12	[0, 0, 0]	n/a	FR1	1	R1080E
1389.986	10.126	1458059	REC_WORD	13.68	n/a	SPARK	-999	12	[0, 0, 0]	n/a	FR1	1	R1080E
1400.112	1.839	1468185	REC_WORD	23.806	n/a	TOY	-999	12	[0, 0, 0]	n/a	FR1	1	R1080E
1401.951	4.368	1470024	REC_WORD	25.645	n/a	BOAT	-999	12	[0, 0, 0]	n/a	FR1	1	R1080E
1406.319	4.794	1474391	REC_END	n/a	n/a	n/a	-999	12	[0, 0, 0]	n/a	FR1	1	R1080E
1411.113	0.0	1479185	TRIAL	n/a	n/a	n/a	-999	13	[0, 0, 0]	n/a	FR1	1	R1080E
1411.113	10.0	1479185	COUNTDOWN_START	n/a	n/a	n/a	-999	13	[0, 0, 0]	n/a	FR1	1	R1080E
1421.541	0.006	1489613	COUNTDOWN_END	n/a	n/a	n/a	-999	13	[0, 0, 0]	n/a	FR1	1	R1080E
1421.547	1.6	1489619	ORIENT	n/a	n/a	n/a	-999	13	[0, 0, 0]	n/a	FR1	1	R1080E
1423.998	1.6	1492069	WORD	n/a	wordpools/wordpool_EN.txt	MOON	1	13	[0, 0, 0]	n/a	FR1	1	R1080E
1426.481	1.6	1494552	WORD	n/a	wordpools/wordpool_EN.txt	GRAPE	2	13	[0, 0, 0]	n/a	FR1	1	R1080E
1428.932	1.6	1497003	WORD	n/a	wordpools/wordpool_EN.txt	ICE	3	13	[0, 0, 0]	n/a	FR1	1	R1080E
1431.332	1.6	1499403	WORD	n/a	wordpools/wordpool_EN.txt	PLANE	4	13	[0, 0, 0]	n/a	FR1	1	R1080E
1433.799	1.6	1501870	WORD	n/a	wordpools/wordpool_EN.txt	JET	5	13	[0, 0, 0]	n/a	FR1	1	R1080E
1436.383	1.6	1504454	WORD	n/a	wordpools/wordpool_EN.txt	CAPE	6	13	[0, 0, 0]	n/a	FR1	1	R1080E
1438.783	1.6	1506854	WORD	n/a	wordpools/wordpool_EN.txt	SLUSH	7	13	[0, 0, 0]	n/a	FR1	1	R1080E
1441.35	1.6	1509421	WORD	n/a	wordpools/wordpool_EN.txt	ROCK	8	13	[0, 0, 0]	n/a	FR1	1	R1080E
1443.852	1.6	1511922	WORD	n/a	wordpools/wordpool_EN.txt	DOG	9	13	[0, 0, 0]	n/a	FR1	1	R1080E
1446.401	1.6	1514471	WORD	n/a	wordpools/wordpool_EN.txt	STAR	10	13	[0, 0, 0]	n/a	FR1	1	R1080E
1448.785	1.6	1516855	WORD	n/a	wordpools/wordpool_EN.txt	PRINCE	11	13	[0, 0, 0]	n/a	FR1	1	R1080E
1451.285	1.6	1519355	WORD	n/a	wordpools/wordpool_EN.txt	FISH	12	13	[0, 0, 0]	n/a	FR1	1	R1080E
1452.886	0.001	1520956	DISTRACT_START	n/a	n/a	n/a	-999	13	[0, 0, 0]	n/a	FR1	1	R1080E
1452.887	0.016	1520957	START	n/a	n/a	n/a	-999	13	[-999, -999, -999]	n/a	FR1	1	R1080E
1452.903	5.617	1520973	PROB	5.594	n/a	n/a	-999	13	[3, 8, 7]	18.0	FR1	1	R1080E
1458.52	8.402	1526590	PROB	8.381	n/a	n/a	-999	13	[5, 3, 6]	14.0	FR1	1	R1080E
1466.922	7.798	1534991	PROB	7.798	n/a	n/a	-999	13	[2, 3, 9]	14.0	FR1	1	R1080E
1474.72	0.002	1542789	STOP	n/a	n/a	n/a	-999	13	[-999, -999, -999]	n/a	FR1	1	R1080E
1474.722	1.051	1542791	DISTRACT_END	n/a	n/a	n/a	-999	13	[0, 0, 0]	n/a	FR1	1	R1080E
1475.773	3.948	1543842	REC_START	n/a	n/a	n/a	-999	13	[0, 0, 0]	n/a	FR1	1	R1080E
1479.721	1.683	1547789	REC_WORD	3.948	n/a	PRINCE	-999	13	[0, 0, 0]	n/a	FR1	1	R1080E
1481.404	3.628	1549472	REC_WORD	5.631	n/a	STAR	-999	13	[0, 0, 0]	n/a	FR1	1	R1080E
1485.032	8.317	1553100	REC_WORD	9.259	n/a	ROCK	-999	13	[0, 0, 0]	n/a	FR1	1	R1080E
1493.349	11.584	1561417	REC_WORD	17.576	n/a	MOON	-999	13	[0, 0, 0]	n/a	FR1	1	R1080E
1504.933	0.858	1573000	REC_WORD	29.16	n/a	SLUSH	-999	13	[0, 0, 0]	n/a	FR1	1	R1080E
1505.791	4.738	1573858	REC_END	n/a	n/a	n/a	-999	13	[0, 0, 0]	n/a	FR1	1	R1080E
1510.529	0.0	1578596	TRIAL	n/a	n/a	n/a	-999	14	[0, 0, 0]	n/a	FR1	1	R1080E
1510.529	10.0	1578596	COUNTDOWN_START	n/a	n/a	n/a	-999	14	[0, 0, 0]	n/a	FR1	1	R1080E
1520.957	0.008	1589023	COUNTDOWN_END	n/a	n/a	n/a	-999	14	[0, 0, 0]	n/a	FR1	1	R1080E
1520.965	1.6	1589031	ORIENT	n/a	n/a	n/a	-999	14	[0, 0, 0]	n/a	FR1	1	R1080E
1523.481	1.6	1591547	WORD	n/a	wordpools/wordpool_EN.txt	BENCH	1	14	[0, 0, 0]	n/a	FR1	1	R1080E
1525.883	1.6	1593949	WORD	n/a	wordpools/wordpool_EN.txt	COUCH	2	14	[0, 0, 0]	n/a	FR1	1	R1080E
1528.299	1.6	1596365	WORD	n/a	wordpools/wordpool_EN.txt	POOL	3	14	[0, 0, 0]	n/a	FR1	1	R1080E
1530.683	1.6	1598749	WORD	n/a	wordpools/wordpool_EN.txt	AXE	4	14	[0, 0, 0]	n/a	FR1	1	R1080E
1533.25	1.6	1601316	WORD	n/a	wordpools/wordpool_EN.txt	TEA	5	14	[0, 0, 0]	n/a	FR1	1	R1080E
1535.733	1.6	1603798	WORD	n/a	wordpools/wordpool_EN.txt	FLOOR	6	14	[0, 0, 0]	n/a	FR1	1	R1080E
1538.284	1.6	1606349	WORD	n/a	wordpools/wordpool_EN.txt	LEG	7	14	[0, 0, 0]	n/a	FR1	1	R1080E
1540.718	1.6	1608783	WORD	n/a	wordpools/wordpool_EN.txt	HOUSE	8	14	[0, 0, 0]	n/a	FR1	1	R1080E
1543.219	1.6	1611284	WORD	n/a	wordpools/wordpool_EN.txt	PURSE	9	14	[0, 0, 0]	n/a	FR1	1	R1080E
1545.735	1.6	1613800	WORD	n/a	wordpools/wordpool_EN.txt	PALM	10	14	[0, 0, 0]	n/a	FR1	1	R1080E
1548.286	1.6	1616351	WORD	n/a	wordpools/wordpool_EN.txt	DART	11	14	[0, 0, 0]	n/a	FR1	1	R1080E
1550.669	1.6	1618734	WORD	n/a	wordpools/wordpool_EN.txt	SHOE	12	14	[0, 0, 0]	n/a	FR1	1	R1080E
1552.286	0.001	1620351	DISTRACT_START	n/a	n/a	n/a	-999	14	[0, 0, 0]	n/a	FR1	1	R1080E
1552.287	0.016	1620352	START	n/a	n/a	n/a	-999	14	[-999, -999, -999]	n/a	FR1	1	R1080E
1552.303	5.268	1620368	PROB	5.235	n/a	n/a	-999	14	[2, 3, 8]	13.0	FR1	1	R1080E
1557.571	3.9	1625635	PROB	3.87	n/a	n/a	-999	14	[5, 1, 9]	15.0	FR1	1	R1080E
1561.471	4.784	1629535	PROB	4.762	n/a	n/a	-999	14	[1, 7, 8]	16.0	FR1	1	R1080E
1566.255	9.456	1634319	PROB	9.456	n/a	n/a	-999	14	[9, 3, 8]	20.0	FR1	1	R1080E
1575.711	0.013	1643774	STOP	n/a	n/a	n/a	-999	14	[-999, -999, -999]	n/a	FR1	1	R1080E
1575.724	1.051	1643787	DISTRACT_END	n/a	n/a	n/a	-999	14	[0, 0, 0]	n/a	FR1	1	R1080E
1576.775	3.499	1644838	REC_START	n/a	n/a	n/a	-999	14	[0, 0, 0]	n/a	FR1	1	R1080E
1580.274	1.724	1648337	REC_WORD	3.499	n/a	PURSE	-999	14	[0, 0, 0]	n/a	FR1	1	R1080E
1581.998	24.787	1650061	REC_WORD	5.223	n/a	PALM	-999	14	[0, 0, 0]	n/a	FR1	1	R1080E
1606.785	23.565	1674847	REC_END	n/a	n/a	n/a	-999	14	[0, 0, 0]	n/a	FR1	1	R1080E
1630.35	0.0	1698410	TRIAL	n/a	n/a	n/a	-999	15	[0, 0, 0]	n/a	FR1	1	R1080E
1630.35	10.0	1698410	COUNTDOWN_START	n/a	n/a	n/a	-999	15	[0, 0, 0]	n/a	FR1	1	R1080E
1640.778	0.007	1708838	COUNTDOWN_END	n/a	n/a	n/a	-999	15	[0, 0, 0]	n/a	FR1	1	R1080E
1640.785	1.6	1708845	ORIENT	n/a	n/a	n/a	-999	15	[0, 0, 0]	n/a	FR1	1	R1080E
1643.252	1.6	1711312	WORD	n/a	wordpools/wordpool_EN.txt	CROW	1	15	[0, 0, 0]	n/a	FR1	1	R1080E
1645.719	1.6	1713778	WORD	n/a	wordpools/wordpool_EN.txt	SOAP	2	15	[0, 0, 0]	n/a	FR1	1	R1080E
1648.121	1.6	1716180	WORD	n/a	wordpools/wordpool_EN.txt	RUG	3	15	[0, 0, 0]	n/a	FR1	1	R1080E
1650.604	1.6	1718663	WORD	n/a	wordpools/wordpool_EN.txt	SUIT	4	15	[0, 0, 0]	n/a	FR1	1	R1080E
1653.088	1.6	1721147	WORD	n/a	wordpools/wordpool_EN.txt	FAN	5	15	[0, 0, 0]	n/a	FR1	1	R1080E
1655.521	1.6	1723580	WORD	n/a	wordpools/wordpool_EN.txt	GOAT	6	15	[0, 0, 0]	n/a	FR1	1	R1080E
1657.973	1.6	1726032	WORD	n/a	wordpools/wordpool_EN.txt	RIB	7	15	[0, 0, 0]	n/a	FR1	1	R1080E
1660.539	1.6	1728598	WORD	n/a	wordpools/wordpool_EN.txt	BOOT	8	15	[0, 0, 0]	n/a	FR1	1	R1080E
1662.973	1.6	1731031	WORD	n/a	wordpools/wordpool_EN.txt	SHIRT	9	15	[0, 0, 0]	n/a	FR1	1	R1080E
1665.539	1.6	1733597	WORD	n/a	wordpools/wordpool_EN.txt	FENCE	10	15	[0, 0, 0]	n/a	FR1	1	R1080E
1667.908	1.6	1735966	WORD	n/a	wordpools/wordpool_EN.txt	BROOM	11	15	[0, 0, 0]	n/a	FR1	1	R1080E
1670.524	1.6	1738582	WORD	n/a	wordpools/wordpool_EN.txt	PANTS	12	15	[0, 0, 0]	n/a	FR1	1	R1080E
1672.142	0.0	1740200	DISTRACT_START	n/a	n/a	n/a	-999	15	[0, 0, 0]	n/a	FR1	1	R1080E
1672.142	0.016	1740200	START	n/a	n/a	n/a	-999	15	[-999, -999, -999]	n/a	FR1	1	R1080E
1672.158	9.952	1740216	PROB	9.933	n/a	n/a	-999	15	[5, 7, 6]	18.0	FR1	1	R1080E
1682.11	13.114	1750167	PROB	13.114	n/a	n/a	-999	15	[9, 3, 5]	17.0	FR1	1	R1080E
1695.224	0.004	1763281	STOP	n/a	n/a	n/a	-999	15	[-999, -999, -999]	n/a	FR1	1	R1080E
1695.228	1.218	1763285	DISTRACT_END	n/a	n/a	n/a	-999	15	[0, 0, 0]	n/a	FR1	1	R1080E
1696.446	7.688	1764503	REC_START	n/a	n/a	n/a	-999	15	[0, 0, 0]	n/a	FR1	1	R1080E
1704.134	22.321	1772190	REC_WORD	7.688	n/a	RIB	-999	15	[0, 0, 0]	n/a	FR1	1	R1080E
1726.455	30.668	1794510	REC_END	n/a	n/a	n/a	-999	15	[0, 0, 0]	n/a	FR1	1	R1080E
1757.123	0.0	1825176	TRIAL	n/a	n/a	n/a	-999	16	[0, 0, 0]	n/a	FR1	1	R1080E
1757.123	10.0	1825176	COUNTDOWN_START	n/a	n/a	n/a	-999	16	[0, 0, 0]	n/a	FR1	1	R1080E
1767.551	0.006	1835604	COUNTDOWN_END	n/a	n/a	n/a	-999	16	[0, 0, 0]	n/a	FR1	1	R1080E
1767.557	1.6	1835610	ORIENT	n/a	n/a	n/a	-999	16	[0, 0, 0]	n/a	FR1	1	R1080E
1769.975	1.6	1838028	WORD	n/a	wordpools/wordpool_EN.txt	BAT	1	16	[0, 0, 0]	n/a	FR1	1	R1080E
1772.575	1.6	1840628	WORD	n/a	wordpools/wordpool_EN.txt	FLEA	2	16	[0, 0, 0]	n/a	FR1	1	R1080E
1775.076	1.6	1843128	WORD	n/a	wordpools/wordpool_EN.txt	NEST	3	16	[0, 0, 0]	n/a	FR1	1	R1080E
1777.542	1.6	1845594	WORD	n/a	wordpools/wordpool_EN.txt	WHALE	4	16	[0, 0, 0]	n/a	FR1	1	R1080E
1780.144	1.6	1848196	WORD	n/a	wordpools/wordpool_EN.txt	HORN	5	16	[0, 0, 0]	n/a	FR1	1	R1080E
1782.56	1.6	1850612	WORD	n/a	wordpools/wordpool_EN.txt	PIG	6	16	[0, 0, 0]	n/a	FR1	1	R1080E
1785.178	1.6	1853230	WORD	n/a	wordpools/wordpool_EN.txt	ANT	7	16	[0, 0, 0]	n/a	FR1	1	R1080E
1787.694	1.6	1855746	WORD	n/a	wordpools/wordpool_EN.txt	SNAIL	8	16	[0, 0, 0]	n/a	FR1	1	R1080E
1790.079	1.6	1858131	WORD	n/a	wordpools/wordpool_EN.txt	TAIL	9	16	[0, 0, 0]	n/a	FR1	1	R1080E
1792.678	1.6	1860729	WORD	n/a	wordpools/wordpool_EN.txt	WORM	10	16	[0, 0, 0]	n/a	FR1	1	R1080E
1795.13	1.6	1863181	WORD	n/a	wordpools/wordpool_EN.txt	BALL	11	16	[0, 0, 0]	n/a	FR1	1	R1080E
1797.679	1.6	1865730	WORD	n/a	wordpools/wordpool_EN.txt	BEE	12	16	[0, 0, 0]	n/a	FR1	1	R1080E
1799.296	0.001	1867347	DISTRACT_START	n/a	n/a	n/a	-999	16	[0, 0, 0]	n/a	FR1	1	R1080E
1799.297	0.016	1867348	START	n/a	n/a	n/a	-999	16	[-999, -999, -999]	n/a	FR1	1	R1080E
1799.313	5.468	1867364	PROB	5.445	n/a	n/a	-999	16	[1, 4, 3]	8.0	FR1	1	R1080E
1804.781	7.285	1872832	PROB	7.256	n/a	n/a	-999	16	[3, 5, 6]	14.0	FR1	1	R1080E
1812.066	5.433	1880116	PROB	5.41	n/a	n/a	-999	16	[7, 9, 3]	19.0	FR1	1	R1080E
1817.499	6.009	1885549	PROB	6.009	n/a	n/a	-999	16	[7, 3, 9]	19.0	FR1	1	R1080E
1823.508	0.009	1891558	STOP	n/a	n/a	n/a	-999	16	[-999, -999, -999]	n/a	FR1	1	R1080E
1823.517	1.184	1891567	DISTRACT_END	n/a	n/a	n/a	-999	16	[0, 0, 0]	n/a	FR1	1	R1080E
1824.701	5.129	1892751	REC_START	n/a	n/a	n/a	-999	16	[0, 0, 0]	n/a	FR1	1	R1080E
1829.83	2.616	1897879	REC_WORD	5.129	n/a	SNAIL	-999	16	[0, 0, 0]	n/a	FR1	1	R1080E
1832.446	3.435	1900495	REC_WORD	7.745	n/a	TAIL	-999	16	[0, 0, 0]	n/a	FR1	1	R1080E
1835.881	8.182	1903930	REC_WORD	11.18	n/a	DOG	-999	16	[0, 0, 0]	n/a	FR1	1	R1080E
1844.063	2.131	1912112	REC_WORD	19.362	n/a	PIG	-999	16	[0, 0, 0]	n/a	FR1	1	R1080E
1846.194	8.523	1914243	REC_WORD	21.493	n/a	ANT	-999	16	[0, 0, 0]	n/a	FR1	1	R1080E
1854.717	24.877	1922765	REC_END	n/a	n/a	n/a	-999	16	[0, 0, 0]	n/a	FR1	1	R1080E
1879.594	0.0	1947641	TRIAL	n/a	n/a	n/a	-999	17	[0, 0, 0]	n/a	FR1	1	R1080E
1879.594	10.0	1947641	COUNTDOWN_START	n/a	n/a	n/a	-999	17	[0, 0, 0]	n/a	FR1	1	R1080E
1890.022	0.008	1958068	COUNTDOWN_END	n/a	n/a	n/a	-999	17	[0, 0, 0]	n/a	FR1	1	R1080E
1890.03	1.6	1958076	ORIENT	n/a	n/a	n/a	-999	17	[0, 0, 0]	n/a	FR1	1	R1080E
1892.429	1.6	1960475	WORD	n/a	wordpools/wordpool_EN.txt	SQUARE	1	17	[0, 0, 0]	n/a	FR1	1	R1080E
1894.914	1.6	1962960	WORD	n/a	wordpools/wordpool_EN.txt	CART	2	17	[0, 0, 0]	n/a	FR1	1	R1080E
1897.463	1.6	1965509	WORD	n/a	wordpools/wordpool_EN.txt	BOWL	3	17	[0, 0, 0]	n/a	FR1	1	R1080E
1899.965	1.6	1968011	WORD	n/a	wordpools/wordpool_EN.txt	BOY	4	17	[0, 0, 0]	n/a	FR1	1	R1080E
1902.464	1.6	1970509	WORD	n/a	wordpools/wordpool_EN.txt	WOOD	5	17	[0, 0, 0]	n/a	FR1	1	R1080E
1905.032	1.6	1973077	WORD	n/a	wordpools/wordpool_EN.txt	BOAT	6	17	[0, 0, 0]	n/a	FR1	1	R1080E
1907.465	1.6	1975510	WORD	n/a	wordpools/wordpool_EN.txt	CROWN	7	17	[0, 0, 0]	n/a	FR1	1	R1080E
1909.883	1.6	1977928	WORD	n/a	wordpools/wordpool_EN.txt	CLAY	8	17	[0, 0, 0]	n/a	FR1	1	R1080E
1912.416	1.6	1980461	WORD	n/a	wordpools/wordpool_EN.txt	CANE	9	17	[0, 0, 0]	n/a	FR1	1	R1080E
1914.901	1.6	1982946	WORD	n/a	wordpools/wordpool_EN.txt	SLEEVE	10	17	[0, 0, 0]	n/a	FR1	1	R1080E
1917.4	1.6	1985445	WORD	n/a	wordpools/wordpool_EN.txt	SWORD	11	17	[0, 0, 0]	n/a	FR1	1	R1080E
1919.852	1.6	1987897	WORD	n/a	wordpools/wordpool_EN.txt	CUBE	12	17	[0, 0, 0]	n/a	FR1	1	R1080E
1921.468	0.0	1989512	DISTRACT_START	n/a	n/a	n/a	-999	17	[0, 0, 0]	n/a	FR1	1	R1080E
1921.468	0.016	1989512	START	n/a	n/a	n/a	-999	17	[-999, -999, -999]	n/a	FR1	1	R1080E
1921.484	13.537	1989528	PROB	13.516	n/a	n/a	-999	17	[8, 9, 6]	23.0	FR1	1	R1080E
1935.021	3.984	2003065	PROB	3.963	n/a	n/a	-999	17	[6, 1, 5]	12.0	FR1	1	R1080E
1939.005	4.139	2007048	PROB	4.139	n/a	n/a	-999	17	[3, 3, 6]	12.0	FR1	1	R1080E
1943.144	0.012	2011187	STOP	n/a	n/a	n/a	-999	17	[-999, -999, -999]	n/a	FR1	1	R1080E
1943.156	1.133	2011199	DISTRACT_END	n/a	n/a	n/a	-999	17	[0, 0, 0]	n/a	FR1	1	R1080E
1944.289	3.185	2012332	REC_START	n/a	n/a	n/a	-999	17	[0, 0, 0]	n/a	FR1	1	R1080E
1947.474	1.74	2015517	REC_WORD	3.185	n/a	SLEEVE	-999	17	[0, 0, 0]	n/a	FR1	1	R1080E
1949.214	21.777	2017257	REC_WORD	4.925	n/a	SWORD	-999	17	[0, 0, 0]	n/a	FR1	1	R1080E
1970.991	3.308	2039033	REC_WORD	26.702	n/a	BOAT	-999	17	[0, 0, 0]	n/a	FR1	1	R1080E
1974.299	16.164	2042341	REC_END	n/a	n/a	n/a	-999	17	[0, 0, 0]	n/a	FR1	1	R1080E
1990.463	0.0	2058504	TRIAL	n/a	n/a	n/a	-999	18	[0, 0, 0]	n/a	FR1	1	R1080E
1990.463	10.0	2058504	COUNTDOWN_START	n/a	n/a	n/a	-999	18	[0, 0, 0]	n/a	FR1	1	R1080E
7766.285	0.0	-1	SESSION_SKIPPED	n/a	n/a	n/a	-999	18	[0, 0, 0]	n/a	FR1	1	R1080E
